,type,responses,trial_type,trial_index,time_elapsed,internal_node_id,mode,subject_cond,exp,uniqueid,success,recalled_list,matching_list,missing_list,shown_list,num_correct,instructions,times,correct_sizes,used_time,list_type,reminder,id,total_points
0,survey-text,"{""Q0"":""5f96ecaca0ed8c01b13dd7c4""}",survey-text,0.0,17265.0,0.0-0.0,pilot,0,expAv3,debuguiW6X:debugITEf6,,,,,,,,,,,,,,
1,survey-text,"{""Q0"":""615211c71871ab62cb14cbe1""}",survey-text,0.0,5610.0,0.0-0.0,pilot,1,expAv3,debuglNYgT:debug91U3D,,,,,,,,,,,,,,
2,survey-text,"{""Q0"":""615033332cea99204ba90a95""}",survey-text,0.0,9406.0,0.0-0.0,pilot,4,expAv3,debugjHiAt:debugtsSZL,,,,,,,,,,,,,,
3,text-recall,,text-recall,25.0,567325.0,0.0-27.0,pilot,4,expAv3,debugjHiAt:debugtsSZL,False,"['CHICKEN', 'VULTURE', 'PARROT', 'CLOUD', 'RAIN', 'TROUSERS', 'JACKET', 'SKIRT', 'SUIT', 'SUNSHINE', 'RAIN']","['CHICKEN', 'VULTURE', 'PARROT', 'CLOUDS', 'RAIN', 'TROUSERS', 'JACKET', 'SKIRT', 'SUIT', 'SUNSHINE']","['ELEPHANT', 'SNOW', 'SQUIRREL', 'FOX', 'HAWK', 'TURTLE']","['SUNSHINE', 'ELEPHANT', 'VULTURE', 'SUIT', 'RAIN', 'SNOW', 'SQUIRREL', 'PARROT', 'TROUSERS', 'FOX', 'HAWK', 'CLOUDS', 'TURTLE', 'SKIRT', 'JACKET', 'CHICKEN']",10.0,False,"[5244, 5521, 7112, 2336, 1016, 1783, 1441, 1127, 13354, 5489, 1423]",True,49924.0,categorized_16_9,,,
4,reminder,,reminder,26.0,611489.0,0.0-28.0,pilot,4,expAv3,debugjHiAt:debugtsSZL,False,"['ELEPHANT', 'VULTURE', 'PARROT', 'CHICKEN', 'FOX', 'HAWK']","['FOX', 'HAWK']","['SNOW', 'SQUIRREL', 'TURTLE']","['SUNSHINE', 'ELEPHANT', 'VULTURE', 'SUIT', 'RAIN', 'SNOW', 'SQUIRREL', 'PARROT', 'TROUSERS', 'FOX', 'HAWK', 'CLOUDS', 'TURTLE', 'SKIRT', 'JACKET', 'CHICKEN']",2.0,False,"[2665, 2329, 1440, 1568, 3680, 1344]",,,categorized_16_9,ELEPHANT,,
5,text-recall,,text-recall,29.0,743922.0,0.0-31.0,pilot,4,expAv3,debugjHiAt:debugtsSZL,False,"['SLIP', 'EARTHQUAKE', 'CLIFF', 'CAVE', 'SHORTS', 'SLIP', 'CAVE', 'HARP', 'HAIL']","['SLIP', 'EARTHQUAKE', 'CLIFF', 'CAVE', 'SHORTS', 'HARP', 'HAIL']","['CLARINET', 'KEYBOARD', 'BOXERS', 'TIE', 'PLATEAU', 'GORGE', 'BANJO', 'WIND', 'BLIZZARD']","['CLARINET', 'KEYBOARD', 'BOXERS', 'TIE', 'HAIL', 'CAVE', 'PLATEAU', 'GORGE', 'BANJO', 'HARP', 'CLIFF', 'EARTHQUAKE', 'WIND', 'SHORTS', 'BLIZZARD', 'SLIP']",7.0,False,"[4766, 3255, 1353, 1472, 3528, 3960, 7519, 3528, 10305]",True,61072.0,categorized_16_7,,,
6,reminder,,reminder,30.0,776849.0,0.0-32.0,pilot,4,expAv3,debugjHiAt:debugtsSZL,False,"['WIND', 'SLIP', 'HAIL', 'CAVE']",[],"['CLARINET', 'KEYBOARD', 'BOXERS', 'TIE', 'PLATEAU', 'GORGE', 'BANJO', 'BLIZZARD']","['CLARINET', 'KEYBOARD', 'BOXERS', 'TIE', 'HAIL', 'CAVE', 'PLATEAU', 'GORGE', 'BANJO', 'HARP', 'CLIFF', 'EARTHQUAKE', 'WIND', 'SHORTS', 'BLIZZARD', 'SLIP']",0.0,False,"[4294, 1136, 1727, 8097]",,,categorized_16_7,WIND,,
7,text-recall,,text-recall,33.0,865329.0,0.0-35.0,pilot,4,expAv3,debugjHiAt:debugtsSZL,False,"['HOSE', 'KITE', 'SQUIRREL', 'BALL', 'HOSE', 'BOX']","['HOSE', 'KITE', 'BALL']","['CRANE', 'DIGEST', 'NINTENDO', 'BUCKET', 'SOIL', 'SWAN', 'SEEDS', 'EDITORIAL', 'MANUSCRIPT', 'SPARROW', 'PUZZLE', 'FALCON', 'LETTER']","['CRANE', 'DIGEST', 'NINTENDO', 'BUCKET', 'SOIL', 'SWAN', 'SEEDS', 'EDITORIAL', 'MANUSCRIPT', 'SPARROW', 'KITE', 'PUZZLE', 'BALL', 'FALCON', 'LETTER', 'HOSE']",3.0,False,"[2550, 976, 2576, 2040, 1720, 6240]",False,25325.0,categorized_16_2,,,
8,reminder,,reminder,34.0,936038.0,0.0-36.0,pilot,4,expAv3,debugjHiAt:debugtsSZL,False,"['SOIL', 'NINTENDO']",['SOIL'],"['CRANE', 'DIGEST', 'NINTENDO', 'BUCKET', 'SWAN', 'EDITORIAL', 'MANUSCRIPT', 'SPARROW', 'PUZZLE', 'FALCON', 'LETTER']","['CRANE', 'DIGEST', 'NINTENDO', 'BUCKET', 'SOIL', 'SWAN', 'SEEDS', 'EDITORIAL', 'MANUSCRIPT', 'SPARROW', 'KITE', 'PUZZLE', 'BALL', 'FALCON', 'LETTER', 'HOSE']",1.0,False,"[10400, 8000]",,,categorized_16_2,SEEDS,,
9,text-recall,,text-recall,37.0,1036181.0,0.0-39.0,pilot,4,expAv3,debugjHiAt:debugtsSZL,False,"['CLOSET', 'ROOM', 'KITCHEN', 'TRACK', 'SWIMMING', 'GYMNASTICS', 'BELT', 'CYCLING', 'FROST', 'LIGHTNING']","['CLOSET', 'ROOM', 'KITCHEN', 'TRACK', 'SWIMMING', 'GYMNASTICS', 'BELT', 'FROST', 'LIGHTNING']","['BOWLING', 'COAT', 'ROBE', 'GALE', 'FOG', 'ELEVATOR', 'DRESS']","['SWIMMING', 'BOWLING', 'COAT', 'ROBE', 'GALE', 'KITCHEN', 'GYMNASTICS', 'TRACK', 'LIGHTNING', 'FOG', 'BELT', 'ELEVATOR', 'DRESS', 'FROST', 'ROOM', 'CLOSET']",9.0,False,"[4165, 1073, 1848, 1168, 1408, 2864, 3137, 6406, 5225, 6240]",True,36213.0,categorized_16_8,,,
10,reminder,,reminder,38.0,1094108.0,0.0-40.0,pilot,4,expAv3,debugjHiAt:debugtsSZL,False,['FOG'],[],"['BOWLING', 'COAT', 'ROBE', 'GALE', 'ELEVATOR', 'DRESS']","['SWIMMING', 'BOWLING', 'COAT', 'ROBE', 'GALE', 'KITCHEN', 'GYMNASTICS', 'TRACK', 'LIGHTNING', 'FOG', 'BELT', 'ELEVATOR', 'DRESS', 'FROST', 'ROOM', 'CLOSET']",0.0,False,[2465],,,categorized_16_8,FOG,,
11,text-recall,,text-recall,41.0,1186718.0,0.0-43.0,pilot,4,expAv3,debugjHiAt:debugtsSZL,False,"['COTTAGE', 'HOTEL', 'MANSION', 'WALLS', 'ENTRANCE', 'BASEMENT', 'ATTIC', 'MANGO', 'PLUM', 'LIME', 'GRAPE', 'PLUM', 'DORMITORY']","['COTTAGE', 'HOTEL', 'MANSION', 'WALLS', 'ENTRANCE', 'BASEMENT', 'ATTIC', 'MANGO', 'PLUM', 'LIME', 'GRAPE', 'DORMITORY']","['CAMEL', 'ELK', 'RAT', 'RABBIT']","['GRAPE', 'LIME', 'MANSION', 'PLUM', 'DORMITORY', 'CAMEL', 'ENTRANCE', 'WALLS', 'ELK', 'MANGO', 'RAT', 'RABBIT', 'ATTIC', 'BASEMENT', 'COTTAGE', 'HOTEL']",12.0,False,"[3302, 1329, 2289, 1047, 3792, 1623, 913, 1112, 2552, 1384, 1968, 9624, 5512]",True,38182.0,categorized_16_4,,,
12,reminder,,reminder,42.0,1242580.0,0.0-44.0,pilot,4,expAv3,debugjHiAt:debugtsSZL,False,['RAT'],[],"['CAMEL', 'ELK', 'RABBIT']","['GRAPE', 'LIME', 'MANSION', 'PLUM', 'DORMITORY', 'CAMEL', 'ENTRANCE', 'WALLS', 'ELK', 'MANGO', 'RAT', 'RABBIT', 'ATTIC', 'BASEMENT', 'COTTAGE', 'HOTEL']",0.0,False,[3545],,,categorized_16_4,RAT,,
13,text-recall,,text-recall,45.0,1327366.0,0.0-47.0,pilot,4,expAv3,debugjHiAt:debugtsSZL,False,"['GOLF', 'SKIING', 'TAN', 'OTTOMAN', 'MAROON', 'GRAY', 'REGGAE', 'TECHNO', 'GOLFING', 'GOLF', 'FOLK', 'INSTRUMENTAL']","['GOLF', 'SKIING', 'TAN', 'OTTOMAN', 'MAROON', 'GRAY', 'REGGAE', 'TECHNO', 'FOLK', 'INSTRUMENTAL']","['BOXING', 'CABINET', 'BROWN', 'DESK', 'SAILING', 'BUREAU']","['SKIING', 'TAN', 'BOXING', 'CABINET', 'BROWN', 'OTTOMAN', 'TECHNO', 'INSTRUMENTAL', 'DESK', 'REGGAE', 'MAROON', 'GRAY', 'FOLK', 'SAILING', 'BUREAU', 'GOLF']",10.0,False,"[1957, 1688, 1024, 1840, 2176, 1633, 6944, 1536, 2015, 2008, 3728, 2769]",True,30692.0,categorized_16_6,,,
14,reminder,,reminder,46.0,1390691.0,0.0-48.0,pilot,4,expAv3,debugjHiAt:debugtsSZL,False,"['BOXING', 'CABINET']",['CABINET'],"['BROWN', 'DESK', 'SAILING', 'BUREAU']","['SKIING', 'TAN', 'BOXING', 'CABINET', 'BROWN', 'OTTOMAN', 'TECHNO', 'INSTRUMENTAL', 'DESK', 'REGGAE', 'MAROON', 'GRAY', 'FOLK', 'SAILING', 'BUREAU', 'GOLF']",1.0,False,"[3113, 2120]",,,categorized_16_6,BOXING,,
15,text-recall,,text-recall,49.0,1498011.0,0.0-51.0,pilot,4,expAv3,debugjHiAt:debugtsSZL,False,"['BARGE', 'BATTLESHIP', 'SALSA', 'BALLROOM', 'WALTZ', 'BALLET', 'HORNET', 'WASP', 'VELVET', 'CLOTH']","['BARGE', 'BATTLESHIP', 'SALSA', 'BALLROOM', 'WALTZ', 'BALLET', 'HORNET', 'WASP', 'VELVET', 'CLOTH']","['FERRY', 'LACE', 'BUTTERFLY', 'MOSQUITO', 'TANKER', 'LEATHER']","['WALTZ', 'FERRY', 'SALSA', 'WASP', 'BARGE', 'LACE', 'BALLET', 'BUTTERFLY', 'VELVET', 'HORNET', 'MOSQUITO', 'TANKER', 'CLOTH', 'LEATHER', 'BALLROOM', 'BATTLESHIP']",10.0,False,"[1965, 4218, 1688, 1727, 1585, 2983, 2145, 2294, 11521, 1440]",True,51510.0,categorized_16_1,,,
16,reminder,,reminder,50.0,1540543.0,0.0-52.0,pilot,4,expAv3,debugjHiAt:debugtsSZL,False,['LEATHER'],[],"['FERRY', 'LACE', 'BUTTERFLY', 'MOSQUITO', 'TANKER']","['WALTZ', 'FERRY', 'SALSA', 'WASP', 'BARGE', 'LACE', 'BALLET', 'BUTTERFLY', 'VELVET', 'HORNET', 'MOSQUITO', 'TANKER', 'CLOTH', 'LEATHER', 'BALLROOM', 'BATTLESHIP']",0.0,False,[3523],,,categorized_16_1,LEATHER,,
17,text-recall,,text-recall,53.0,1633801.0,0.0-55.0,pilot,4,expAv3,debugjHiAt:debugtsSZL,False,"['WRESTLING', 'FENCING', 'BLUEGRASS', 'SAGE', 'GINGER', 'RUGBY', 'OWL', 'CROW', 'ALTERNATIVE']","['WRESTLING', 'FENCING', 'BLUEGRASS', 'SAGE', 'GINGER', 'RUGBY', 'OWL', 'CROW', 'ALTERNATIVE']","['CANARY', 'BLUES', 'VANILLA', 'OPERA', 'HANDBALL', 'SUGAR', 'PENGUIN']","['CANARY', 'BLUES', 'VANILLA', 'RUGBY', 'FENCING', 'GINGER', 'SAGE', 'ALTERNATIVE', 'OWL', 'OPERA', 'HANDBALL', 'CROW', 'SUGAR', 'PENGUIN', 'BLUEGRASS', 'WRESTLING']",9.0,False,"[2992, 1512, 4696, 4016, 1696, 4888, 1937, 1472, 7039]",True,38856.0,categorized_16_0,,,
18,reminder,,reminder,54.0,1689073.0,0.0-56.0,pilot,4,expAv3,debugjHiAt:debugtsSZL,False,['CANARY'],[],"['BLUES', 'VANILLA', 'OPERA', 'HANDBALL', 'SUGAR', 'PENGUIN']","['CANARY', 'BLUES', 'VANILLA', 'RUGBY', 'FENCING', 'GINGER', 'SAGE', 'ALTERNATIVE', 'OWL', 'OPERA', 'HANDBALL', 'CROW', 'SUGAR', 'PENGUIN', 'BLUEGRASS', 'WRESTLING']",0.0,False,[2094],,,categorized_16_0,CANARY,,
19,text-recall,,text-recall,57.0,1831904.0,0.0-59.0,pilot,4,expAv3,debugjHiAt:debugtsSZL,False,"['TYHOON', 'TSUNAMI', 'CYCLONE', 'CEDAR', 'ELM', 'FIR', 'ELK', 'THUNDER']","['TYPHOON', 'TSUNAMI', 'CYCLONE', 'CEDAR', 'ELM', 'FIR', 'THUNDER']","['STEAM', 'NUCLEAR', 'ELECTRICITY', 'SYMPHONY', 'SOLAR', 'SOUL', 'SKA', 'GOSPEL', 'EUCALYPTUS']","['TYPHOON', 'STEAM', 'NUCLEAR', 'FIR', 'ELECTRICITY', 'ELM', 'CEDAR', 'SYMPHONY', 'SOLAR', 'SOUL', 'SKA', 'CYCLONE', 'GOSPEL', 'TSUNAMI', 'THUNDER', 'EUCALYPTUS']",7.0,False,"[7582, 3273, 4383, 1321, 1095, 832, 1696, 3864]",True,88782.0,categorized_16_5,,,
20,reminder,,reminder,58.0,1855899.0,0.0-60.0,pilot,4,expAv3,debugjHiAt:debugtsSZL,False,['STEAM'],[],"['NUCLEAR', 'ELECTRICITY', 'SYMPHONY', 'SOLAR', 'SOUL', 'SKA', 'GOSPEL', 'EUCALYPTUS']","['TYPHOON', 'STEAM', 'NUCLEAR', 'FIR', 'ELECTRICITY', 'ELM', 'CEDAR', 'SYMPHONY', 'SOLAR', 'SOUL', 'SKA', 'CYCLONE', 'GOSPEL', 'TSUNAMI', 'THUNDER', 'EUCALYPTUS']",0.0,False,[6244],,,categorized_16_5,STEAM,,
21,text-recall,,text-recall,61.0,1952715.0,0.0-63.0,pilot,4,expAv3,debugjHiAt:debugtsSZL,False,"['PIG', 'WOLF', 'PENCIL', 'JOURNAL', 'PAPER', 'RULER', 'NOTEPAD', 'DEER', 'WOLF', 'SHARK', 'DRILL']","['PIG', 'WOLF', 'PENCIL', 'JOURNAL', 'PAPER', 'RULER', 'DEER', 'SHARK', 'DRILL']","['BOLT', 'CARP', 'NOTE', 'GOAT', 'PERCH', 'CATFISH', 'ENCYCLOPEDIA']","['BOLT', 'DEER', 'SHARK', 'PAPER', 'CARP', 'PENCIL', 'JOURNAL', 'NOTE', 'GOAT', 'PERCH', 'CATFISH', 'ENCYCLOPEDIA', 'RULER', 'WOLF', 'DRILL', 'PIG']",9.0,False,"[1532, 1728, 1911, 5185, 1534, 3786, 2007, 12177, 3079, 1137, 1472]",True,38747.0,categorized_16_3,,,
22,reminder,,reminder,62.0,2008238.0,0.0-64.0,pilot,4,expAv3,debugjHiAt:debugtsSZL,False,[],[],"['BOLT', 'CARP', 'NOTE', 'GOAT', 'PERCH', 'CATFISH']","['BOLT', 'DEER', 'SHARK', 'PAPER', 'CARP', 'PENCIL', 'JOURNAL', 'NOTE', 'GOAT', 'PERCH', 'CATFISH', 'ENCYCLOPEDIA', 'RULER', 'WOLF', 'DRILL', 'PIG']",0.0,False,[],,,categorized_16_3,ENCYCLOPEDIA,,
23,survey-text,"{""Q0"":""""}",survey-text,65.0,2022649.0,0.0-67.0,pilot,4,expAv3,debugjHiAt:debugtsSZL,,,,,,,,,,,,,,
24,total-points,,,,,,,,,debugjHiAt:debugtsSZL,,,,,,,,,,,,,debugjHiAt:debugtsSZL,92.0
25,survey-text,"{""Q0"":""603e66c867d4bcef6f7af649""}",survey-text,0.0,12578.0,0.0-0.0,pilot,9,expAv3,debugqhzqd:debugDUpJ5,,,,,,,,,,,,,,
26,text-recall,,text-recall,37.0,816073.0,0.0-27.0,pilot,9,expAv3,debugqhzqd:debugDUpJ5,False,"['GOSPEL', 'ANTILOPE', 'BEACH', 'SHEEP', 'EUCALYPTUS', 'ANTILOPE', 'WILLOW', 'SQUIRREL', 'POP', 'SYMPHONY']","['GOSPEL', 'SHEEP', 'EUCALYPTUS', 'WILLOW', 'SQUIRREL', 'POP', 'SYMPHONY']","['PLAIN', 'GLACIER', 'BEECH', 'ANTELOPE', 'VOLCANO', 'POPLAR', 'STREAM', 'FOX', 'ALTERNATIVE']","['PLAIN', 'GLACIER', 'BEECH', 'SHEEP', 'EUCALYPTUS', 'ANTELOPE', 'WILLOW', 'SQUIRREL', 'VOLCANO', 'POP', 'SYMPHONY', 'POPLAR', 'STREAM', 'FOX', 'ALTERNATIVE', 'GOSPEL']",7.0,False,"[3159, 2058, 9469, 1099, 3971, 1318, 2349, 4470, 5723, 3206]",True,38226.0,categorized_16_8,,,
27,reminder,,reminder,38.0,872154.0,0.0-28.0,pilot,9,expAv3,debugqhzqd:debugDUpJ5,False,"['POPLAR', 'STREAM', 'FOX', 'ALTERNATIVE', '', '']","['STREAM', 'FOX', 'ALTERNATIVE']","['PLAIN', 'GLACIER', 'BEECH', 'ANTELOPE', 'VOLCANO']","['PLAIN', 'GLACIER', 'BEECH', 'SHEEP', 'EUCALYPTUS', 'ANTELOPE', 'WILLOW', 'SQUIRREL', 'VOLCANO', 'POP', 'SYMPHONY', 'POPLAR', 'STREAM', 'FOX', 'ALTERNATIVE', 'GOSPEL']",3.0,False,"[2281, 6223, 809, 5035, 8571, 16901]",,,categorized_16_8,POPLAR,,
28,text-recall,,text-recall,41.0,957841.0,0.0-31.0,pilot,9,expAv3,debugqhzqd:debugDUpJ5,False,"['WOLF', 'PIG', 'MOOSE', 'ATTIC', 'BLIZZARD', 'RAIN', 'FLOOD']","['WOLF', 'PIG', 'MOOSE', 'ATTIC', 'BLIZZARD', 'RAIN', 'FLOOD']","['WING', 'VALLEY', 'BEAR', 'FROST', 'FLOOR', 'ROOM', 'OCEAN', 'GORGE', 'LAKE']","['WOLF', 'WING', 'VALLEY', 'BLIZZARD', 'BEAR', 'FLOOD', 'FROST', 'FLOOR', 'ROOM', 'OCEAN', 'GORGE', 'MOOSE', 'PIG', 'ATTIC', 'RAIN', 'LAKE']",7.0,False,"[2156, 1149, 1029, 1169, 2902, 1254, 1229]",True,13294.0,categorized_16_9,,,
29,reminder,,reminder,42.0,1038479.0,0.0-32.0,pilot,9,expAv3,debugqhzqd:debugDUpJ5,False,"['BEAR', 'WING', '']",['BEAR'],"['VALLEY', 'FROST', 'FLOOR', 'ROOM', 'OCEAN', 'GORGE', 'LAKE']","['WOLF', 'WING', 'VALLEY', 'BLIZZARD', 'BEAR', 'FLOOD', 'FROST', 'FLOOR', 'ROOM', 'OCEAN', 'GORGE', 'MOOSE', 'PIG', 'ATTIC', 'RAIN', 'LAKE']",1.0,False,"[1630, 800, 35559]",,,categorized_16_9,WING,,
30,text-recall,,text-recall,45.0,1172239.0,0.0-35.0,pilot,9,expAv3,debugqhzqd:debugDUpJ5,False,"['CLIFF', 'BOLT', 'RIVER', 'DRILL', 'WATERFALL', 'PENCIL', 'FIDDLE', 'HARMONICA', 'SPARROW', 'AXE', 'SWAN', 'DUCK', '', '', '', '', '', '', '']","['CLIFF', 'BOLT', 'RIVER', 'DRILL', 'WATERFALL', 'PENCIL', 'FIDDLE', 'HARMONICA', 'SPARROW', 'AXE', 'SWAN', 'DUCK']","['RIDGE', 'CLARINET', 'VULTURE', 'BANJO']","['RIDGE', 'CLARINET', 'CLIFF', 'BOLT', 'RIVER', 'DRILL', 'WATERFALL', 'PENCIL', 'FIDDLE', 'HARMONICA', 'SPARROW', 'AXE', 'DUCK', 'VULTURE', 'BANJO', 'SWAN']",12.0,False,"[12146, 2876, 1883, 3043, 4115, 2228, 4604, 2952, 2712, 3761, 1353, 999, 13795, 1483, 165, 180, 170, 184, 170]",True,60326.0,categorized_16_7,,,
31,reminder,,reminder,46.0,1206207.0,0.0-36.0,pilot,9,expAv3,debugqhzqd:debugDUpJ5,False,"['RIDGE', '', '']",[],"['CLARINET', 'VULTURE', 'BANJO']","['RIDGE', 'CLARINET', 'CLIFF', 'BOLT', 'RIVER', 'DRILL', 'WATERFALL', 'PENCIL', 'FIDDLE', 'HARMONICA', 'SPARROW', 'AXE', 'DUCK', 'VULTURE', 'BANJO', 'SWAN']",0.0,False,"[2276, 276, 21264]",,,categorized_16_7,RIDGE,,
32,text-recall,,text-recall,49.0,1301502.0,0.0-39.0,pilot,9,expAv3,debugqhzqd:debugDUpJ5,False,"['TRACKBOAT', 'STEAMBOAT', 'BUNGALOW', 'WRESTLING']","['STEAMBOAT', 'BUNGALOW', 'WRESTLING']","['TRACK', 'DORMITORY', 'MANSION', 'FINCH', 'DESTROYER', 'COTTAGE', 'HANDBALL', 'BATTLESHIP', 'CROW', 'PEACOCK', 'FALCON', 'FERRY', 'SWIMMING']","['TRACK', 'DORMITORY', 'BUNGALOW', 'STEAMBOAT', 'MANSION', 'FINCH', 'DESTROYER', 'COTTAGE', 'HANDBALL', 'BATTLESHIP', 'CROW', 'PEACOCK', 'FALCON', 'WRESTLING', 'FERRY', 'SWIMMING']",3.0,False,"[4726, 2892, 3521, 6602]",True,38779.0,categorized_16_2,,,
33,reminder,,reminder,50.0,1357162.0,0.0-40.0,pilot,9,expAv3,debugqhzqd:debugDUpJ5,False,"['SWIMMING', '']",[],"['TRACK', 'DORMITORY', 'MANSION', 'FINCH', 'DESTROYER', 'COTTAGE', 'HANDBALL', 'BATTLESHIP', 'CROW', 'PEACOCK', 'FALCON', 'FERRY']","['TRACK', 'DORMITORY', 'BUNGALOW', 'STEAMBOAT', 'MANSION', 'FINCH', 'DESTROYER', 'COTTAGE', 'HANDBALL', 'BATTLESHIP', 'CROW', 'PEACOCK', 'FALCON', 'WRESTLING', 'FERRY', 'SWIMMING']",0.0,False,"[4011, 25073]",,,categorized_16_2,SWIMMING,,
34,text-recall,,text-recall,53.0,1468712.0,0.0-43.0,pilot,9,expAv3,debugqhzqd:debugDUpJ5,False,"['ISLAND', 'BEETLE', 'BUTTERFLY', 'CANYON', 'NUCLEAR', 'MOTH', 'WASPS', 'WASP', 'ELECTRICITY', 'BATHROOM']","['ISLAND', 'BEETLE', 'BUTTERFLY', 'CANYON', 'NUCLEAR', 'WASP', 'ELECTRICITY', 'BATHROOM']","['ROOF', 'SEA', 'CEILING', 'STEAM', 'CAVE', 'WORM', 'WATER', 'CELLAR']","['BEETLE', 'BUTTERFLY', 'ROOF', 'WASP', 'ELECTRICITY', 'SEA', 'ISLAND', 'BATHROOM', 'CEILING', 'STEAM', 'NUCLEAR', 'CAVE', 'WORM', 'WATER', 'CANYON', 'CELLAR']",8.0,False,"[1872, 1363, 1824, 3667, 9755, 14404, 2642, 1883, 6328, 3056]",True,48146.0,categorized_16_0,,,
35,reminder,,reminder,54.0,1515204.0,0.0-44.0,pilot,9,expAv3,debugqhzqd:debugDUpJ5,False,"['STEAM', '']",[],"['ROOF', 'SEA', 'CEILING', 'CAVE', 'WORM', 'WATER', 'CELLAR']","['BEETLE', 'BUTTERFLY', 'ROOF', 'WASP', 'ELECTRICITY', 'SEA', 'ISLAND', 'BATHROOM', 'CEILING', 'STEAM', 'NUCLEAR', 'CAVE', 'WORM', 'WATER', 'CANYON', 'CELLAR']",0.0,False,"[1940, 22429]",,,categorized_16_0,STEAM,,
36,text-recall,,text-recall,57.0,1616806.0,0.0-47.0,pilot,9,expAv3,debugqhzqd:debugDUpJ5,False,"['CHERRY', 'GINGER', 'PLUM', 'SUNSHINE', 'BLOCKS', 'FIG', 'MANGO~']","['CHERRY', 'GINGER', 'PLUM', 'SUNSHINE', 'BLOCKS', 'FIG']","['BALL', 'THUNDER', 'VANILLA', 'SUGAR', 'SAGE', 'KITE', 'MANGO', 'MONSOON', 'FOG', 'PUZZLE']","['CHERRY', 'PLUM', 'GINGER', 'BALL', 'THUNDER', 'SUNSHINE', 'BLOCKS', 'VANILLA', 'SUGAR', 'SAGE', 'KITE', 'MANGO', 'MONSOON', 'FOG', 'FIG', 'PUZZLE']",6.0,False,"[5435, 2731, 3801, 1953, 2397, 1963, 8557]",False,28066.0,categorized_16_1,,,
37,reminder,,reminder,58.0,1682748.0,0.0-48.0,pilot,9,expAv3,debugqhzqd:debugDUpJ5,False,"['KITE', '', '', '', '', '', 'KITE']",[],"['BALL', 'THUNDER', 'VANILLA', 'SUGAR', 'SAGE', 'MANGO', 'MONSOON', 'FOG', 'PUZZLE']","['CHERRY', 'PLUM', 'GINGER', 'BALL', 'THUNDER', 'SUNSHINE', 'BLOCKS', 'VANILLA', 'SUGAR', 'SAGE', 'KITE', 'MANGO', 'MONSOON', 'FOG', 'FIG', 'PUZZLE']",0.0,False,"[2948, 49036, 190, 165, 204, 200, 2797]",,,categorized_16_1,KITE,,
38,text-recall,,text-recall,61.0,1762979.0,0.0-51.0,pilot,9,expAv3,debugqhzqd:debugDUpJ5,False,"['ENCYCOLPEDIA', 'RABBIT', 'TIGER', 'PAPER', 'MANUSCRIPT', 'TRAIN', 'PAPER', 'LIZARD']","['ENCYCLOPEDIA', 'RABBIT', 'TIGER', 'PAPER', 'MANUSCRIPT', 'TRAIN', 'LIZARD']","['KITCHEN', 'MOTORCYCLE', 'JET', 'TURTLE', 'ESSAY', 'LOBBY', 'TRACTOR', 'ENTRANCE', 'ELEVATOR']","['KITCHEN', 'MANUSCRIPT', 'RABBIT', 'MOTORCYCLE', 'JET', 'TURTLE', 'ESSAY', 'ENCYCLOPEDIA', 'LOBBY', 'TRACTOR', 'PAPER', 'TIGER', 'ENTRANCE', 'LIZARD', 'TRAIN', 'ELEVATOR']",7.0,False,"[6649, 2158, 1120, 968, 1598, 2788, 1144, 1812]",True,22938.0,categorized_16_5,,,
39,reminder,,reminder,62.0,1834129.0,0.0-52.0,pilot,9,expAv3,debugqhzqd:debugDUpJ5,False,"['ESSAY', '']",[],"['KITCHEN', 'MOTORCYCLE', 'JET', 'TURTLE', 'LOBBY', 'TRACTOR', 'ENTRANCE', 'ELEVATOR']","['KITCHEN', 'MANUSCRIPT', 'RABBIT', 'MOTORCYCLE', 'JET', 'TURTLE', 'ESSAY', 'ENCYCLOPEDIA', 'LOBBY', 'TRACTOR', 'PAPER', 'TIGER', 'ENTRANCE', 'LIZARD', 'TRAIN', 'ELEVATOR']",0.0,False,"[3079, 34692]",,,categorized_16_5,ESSAY,,
40,text-recall,,text-recall,65.0,2022570.0,0.0-55.0,pilot,9,expAv3,debugqhzqd:debugDUpJ5,False,"['PITCHFORK', 'HOSE', 'LACE', 'LINEN', 'CLOTH', 'CABINET']","['PITCHFORK', 'HOSE', 'LACE', 'LINEN', 'CLOTH', 'CABINET']","['OTTOMAN', 'DROUGHT', 'GALE', 'CYCLONE', 'BUCKET', 'EARTHQUAKE', 'DESK', 'CLIPPERS', 'FELT', 'LAMP']","['OTTOMAN', 'HOSE', 'DROUGHT', 'GALE', 'CYCLONE', 'BUCKET', 'PITCHFORK', 'LACE', 'LINEN', 'EARTHQUAKE', 'DESK', 'CLIPPERS', 'FELT', 'LAMP', 'CLOTH', 'CABINET']",6.0,False,"[2692, 749, 749, 1099, 1555, 9137]",True,17125.0,categorized_16_3,,,
41,reminder,,reminder,66.0,2099332.0,0.0-56.0,pilot,9,expAv3,debugqhzqd:debugDUpJ5,False,"['FELT', 'HAY']",[],"['OTTOMAN', 'DROUGHT', 'GALE', 'CYCLONE', 'BUCKET', 'EARTHQUAKE', 'DESK', 'CLIPPERS', 'LAMP']","['OTTOMAN', 'HOSE', 'DROUGHT', 'GALE', 'CYCLONE', 'BUCKET', 'PITCHFORK', 'LACE', 'LINEN', 'EARTHQUAKE', 'DESK', 'CLIPPERS', 'FELT', 'LAMP', 'CLOTH', 'CABINET']",0.0,False,"[2021, 619]",,,categorized_16_3,FELT,,
42,text-recall,,text-recall,69.0,2207086.0,0.0-59.0,pilot,9,expAv3,debugqhzqd:debugDUpJ5,False,"['CLOUDS', 'WINDY', 'TECHNO', 'CLARK', 'SHARK', 'WINDY', 'REGGAE', 'TYPHOON', 'TUNA']","['CLOUDS', 'TECHNO', 'SHARK', 'REGGAE', 'TYPHOON', 'TUNA']","['CARP', 'TSUNAMI', 'LETTER', 'BOOKLET', 'CATFISH', 'PAMPHLET', 'WIND', 'REPORT', 'SKA', 'BLUES']","['CLOUDS', 'REGGAE', 'TECHNO', 'CARP', 'TSUNAMI', 'SHARK', 'LETTER', 'TUNA', 'BOOKLET', 'CATFISH', 'PAMPHLET', 'TYPHOON', 'WIND', 'REPORT', 'SKA', 'BLUES']",6.0,False,"[2064, 1283, 2958, 1089, 799, 3821, 1224, 3781, 855]",True,19143.0,categorized_16_6,,,
43,reminder,,reminder,70.0,2282159.0,0.0-60.0,pilot,9,expAv3,debugqhzqd:debugDUpJ5,False,"['CATFISH', '', '']",[],"['CARP', 'TSUNAMI', 'LETTER', 'BOOKLET', 'PAMPHLET', 'WIND', 'REPORT', 'SKA', 'BLUES']","['CLOUDS', 'REGGAE', 'TECHNO', 'CARP', 'TSUNAMI', 'SHARK', 'LETTER', 'TUNA', 'BOOKLET', 'CATFISH', 'PAMPHLET', 'TYPHOON', 'WIND', 'REPORT', 'SKA', 'BLUES']",0.0,False,"[8215, 42067, 12942]",,,categorized_16_6,CATFISH,,
44,text-recall,,text-recall,73.0,2358658.0,0.0-63.0,pilot,9,expAv3,debugqhzqd:debugDUpJ5,False,"['BROWN', 'HILL', 'CAT', 'MOUSE', 'RAT', 'INDIGO', 'GREY']","['BROWN', 'HILL', 'MOUSE', 'RAT', 'INDIGO']","['SOUL', 'BLUEGRASS', 'INSTRUMENTAL', 'POND', 'GRAY', 'BUFFALO', 'GOAT', 'OPERA', 'FAULT', 'CRIMSON', 'RAVINE']","['SOUL', 'BLUEGRASS', 'INSTRUMENTAL', 'POND', 'GRAY', 'BUFFALO', 'GOAT', 'OPERA', 'BROWN', 'FAULT', 'CRIMSON', 'RAVINE', 'HILL', 'MOUSE', 'INDIGO', 'RAT']",5.0,False,"[7782, 2177, 3082, 1029, 744, 1599, 2737]",True,21421.0,categorized_16_4,,,
45,reminder,,reminder,74.0,2431464.0,0.0-64.0,pilot,9,expAv3,debugqhzqd:debugDUpJ5,False,[''],[],"['SOUL', 'BLUEGRASS', 'INSTRUMENTAL', 'POND', 'GRAY', 'BUFFALO', 'GOAT', 'OPERA', 'FAULT', 'CRIMSON']","['SOUL', 'BLUEGRASS', 'INSTRUMENTAL', 'POND', 'GRAY', 'BUFFALO', 'GOAT', 'OPERA', 'BROWN', 'FAULT', 'CRIMSON', 'RAVINE', 'HILL', 'MOUSE', 'INDIGO', 'RAT']",0.0,False,[35425],,,categorized_16_4,RAVINE,,
46,survey-text,"{""Q0"":""""}",survey-text,77.0,2458325.0,0.0-67.0,pilot,9,expAv3,debugqhzqd:debugDUpJ5,,,,,,,,,,,,,,
47,total-points,,,,,,,,,debugqhzqd:debugDUpJ5,,,,,,,,,,,,,debugqhzqd:debugDUpJ5,73.0
48,survey-text,"{""Q0"":""601991785f17dd0cf89e3760""}",survey-text,0.0,19848.0,0.0-0.0,pilot,2,expAv3,debugDZntQ:debugGz0Ox,,,,,,,,,,,,,,
49,text-recall,,text-recall,31.0,775361.0,0.0-27.0,pilot,2,expAv3,debugDZntQ:debugGz0Ox,False,"['FIR', 'ANTELOPE', 'CLOUDS', 'TURTLE', 'NOVEL', 'CEDAR', 'SQUIRREL', 'WIND', 'BUFFALO', 'NOTE', 'MANUSCRIPT', 'PAMPHLET', 'ELM', 'POPLAR']","['FIR', 'ANTELOPE', 'CLOUDS', 'TURTLE', 'NOVEL', 'CEDAR', 'SQUIRREL', 'WIND', 'BUFFALO', 'NOTE', 'MANUSCRIPT', 'PAMPHLET', 'ELM', 'POPLAR']","['DROUGHT', 'TYPHOON']","['POPLAR', 'ELM', 'DROUGHT', 'TYPHOON', 'PAMPHLET', 'MANUSCRIPT', 'NOTE', 'BUFFALO', 'WIND', 'SQUIRREL', 'CEDAR', 'NOVEL', 'TURTLE', 'CLOUDS', 'FIR', 'ANTELOPE']",14.0,False,"[4057, 3788, 5612, 5680, 3562, 3111, 6489, 2683, 4487, 2515, 6389, 6201, 3805, 3326]",True,65878.0,categorized_16_8,,,
50,reminder,,reminder,32.0,803231.0,0.0-28.0,pilot,2,expAv3,debugDZntQ:debugGz0Ox,False,['TYPHOON'],[],['DROUGHT'],"['POPLAR', 'ELM', 'DROUGHT', 'TYPHOON', 'PAMPHLET', 'MANUSCRIPT', 'NOTE', 'BUFFALO', 'WIND', 'SQUIRREL', 'CEDAR', 'NOVEL', 'TURTLE', 'CLOUDS', 'FIR', 'ANTELOPE']",0.0,False,[3486],,,categorized_16_8,TYPHOON,,
51,text-recall,,text-recall,35.0,910062.0,0.0-31.0,pilot,2,expAv3,debugDZntQ:debugGz0Ox,False,"['JEANS', 'SYMPHONY', 'PUNK', 'HAT', 'HUT', 'OPERA', 'MANSION']","['JEANS', 'SYMPHONY', 'PUNK', 'HAT', 'HUT', 'OPERA', 'MANSION']","['EUCALYPTUS', 'REDWOOD', 'BUNGALOW', 'SHORTS', 'EVERGREEN', 'ALTERNATIVE', 'DORMITORY', 'SUIT', 'MAPLE']","['EUCALYPTUS', 'REDWOOD', 'BUNGALOW', 'SHORTS', 'HAT', 'HUT', 'OPERA', 'MANSION', 'EVERGREEN', 'ALTERNATIVE', 'DORMITORY', 'SUIT', 'MAPLE', 'PUNK', 'SYMPHONY', 'JEANS']",7.0,False,"[8336, 4628, 3670, 5539, 1095, 3974, 5132]",True,43689.0,categorized_16_5,,,
52,reminder,,reminder,36.0,960208.0,0.0-32.0,pilot,2,expAv3,debugDZntQ:debugGz0Ox,False,['REDWOOD'],[],"['EUCALYPTUS', 'BUNGALOW', 'SHORTS', 'EVERGREEN', 'ALTERNATIVE', 'DORMITORY', 'SUIT', 'MAPLE']","['EUCALYPTUS', 'REDWOOD', 'BUNGALOW', 'SHORTS', 'HAT', 'HUT', 'OPERA', 'MANSION', 'EVERGREEN', 'ALTERNATIVE', 'DORMITORY', 'SUIT', 'MAPLE', 'PUNK', 'SYMPHONY', 'JEANS']",0.0,False,[3591],,,categorized_16_5,REDWOOD,,
53,text-recall,,text-recall,39.0,1085632.0,0.0-35.0,pilot,2,expAv3,debugDZntQ:debugGz0Ox,False,"['CHICKEN', 'DOVE', 'SWAN', 'BLOCKS', 'SUNSHINE', 'VULTURE', 'HAIL', 'RAIN', 'CLOTH', 'KITE', 'BALL', 'FELT', 'LACE']","['CHICKEN', 'DOVE', 'SWAN', 'BLOCKS', 'SUNSHINE', 'VULTURE', 'HAIL', 'RAIN', 'CLOTH', 'KITE', 'BALL', 'FELT', 'LACE']","['VELVET', 'PUZZLE', 'FLOOD']","['LACE', 'FELT', 'BALL', 'VELVET', 'KITE', 'CLOTH', 'PUZZLE', 'RAIN', 'FLOOD', 'HAIL', 'VULTURE', 'SUNSHINE', 'BLOCKS', 'SWAN', 'DOVE', 'CHICKEN']",13.0,False,"[13902, 3525, 2508, 6373, 2585, 4172, 3034, 3337, 3364, 3101, 3418, 2875, 2895]",True,56891.0,categorized_16_2,,,
54,reminder,,reminder,40.0,1122615.0,0.0-36.0,pilot,2,expAv3,debugDZntQ:debugGz0Ox,False,['VELVET'],[],"['PUZZLE', 'FLOOD']","['LACE', 'FELT', 'BALL', 'VELVET', 'KITE', 'CLOTH', 'PUZZLE', 'RAIN', 'FLOOD', 'HAIL', 'VULTURE', 'SUNSHINE', 'BLOCKS', 'SWAN', 'DOVE', 'CHICKEN']",0.0,False,[3603],,,categorized_16_2,VELVET,,
55,text-recall,,text-recall,43.0,1240268.0,0.0-39.0,pilot,2,expAv3,debugDZntQ:debugGz0Ox,False,"['CHERRY', 'TIE', 'MANGO', 'CAMEL', 'BUCKET', 'COW', 'SEEDS', 'GRAPE', 'DONKEY', 'FIG', 'HOSE', 'ELK']","['CHERRY', 'TIE', 'MANGO', 'CAMEL', 'BUCKET', 'COW', 'SEEDS', 'GRAPE', 'DONKEY', 'FIG', 'HOSE', 'ELK']","['SLIP', 'SKIRT', 'SOIL', 'JACKET']","['SLIP', 'ELK', 'HOSE', 'FIG', 'SKIRT', 'SOIL', 'DONKEY', 'GRAPE', 'SEEDS', 'JACKET', 'COW', 'BUCKET', 'CAMEL', 'MANGO', 'TIE', 'CHERRY']",12.0,False,"[6069, 2759, 3447, 4439, 4332, 2241, 6019, 3077, 3913, 4368, 2596, 2691]",True,46921.0,categorized_16_0,,,
56,reminder,,reminder,44.0,1287130.0,0.0-40.0,pilot,2,expAv3,debugDZntQ:debugGz0Ox,False,['SLIP'],[],"['SKIRT', 'SOIL', 'JACKET']","['SLIP', 'ELK', 'HOSE', 'FIG', 'SKIRT', 'SOIL', 'DONKEY', 'GRAPE', 'SEEDS', 'JACKET', 'COW', 'BUCKET', 'CAMEL', 'MANGO', 'TIE', 'CHERRY']",0.0,False,[3029],,,categorized_16_0,SLIP,,
57,text-recall,,text-recall,47.0,1401401.0,0.0-43.0,pilot,2,expAv3,debugDZntQ:debugGz0Ox,False,"['PIG', 'RULER', 'ELEVATOR', 'BASEMENT', 'BEAR', 'LEVEL', 'SCREW', 'MOUSE', 'BATHROOM', 'WORM', 'HORNET', 'TIGER', 'BOLT']","['PIG', 'RULER', 'ELEVATOR', 'BASEMENT', 'BEAR', 'LEVEL', 'SCREW', 'MOUSE', 'BATHROOM', 'WORM', 'HORNET', 'TIGER', 'BOLT']","['BUTTERFLY', 'WASP', 'CLOSET']","['BOLT', 'TIGER', 'BUTTERFLY', 'HORNET', 'WASP', 'CLOSET', 'WORM', 'BATHROOM', 'MOUSE', 'SCREW', 'LEVEL', 'BEAR', 'ELEVATOR', 'BASEMENT', 'RULER', 'PIG']",13.0,False,"[3772, 1737, 4480, 7201, 3921, 2795, 2461, 2984, 3536, 2579, 6828, 5076, 2506]",True,52162.0,categorized_16_9,,,
58,reminder,,reminder,48.0,1442990.0,0.0-44.0,pilot,2,expAv3,debugDZntQ:debugGz0Ox,False,[],[],"['BUTTERFLY', 'CLOSET']","['BOLT', 'TIGER', 'BUTTERFLY', 'HORNET', 'WASP', 'CLOSET', 'WORM', 'BATHROOM', 'MOUSE', 'SCREW', 'LEVEL', 'BEAR', 'ELEVATOR', 'BASEMENT', 'RULER', 'PIG']",0.0,False,[],,,categorized_16_9,WASP,,
59,text-recall,,text-recall,51.0,1564691.0,0.0-47.0,pilot,2,expAv3,debugDZntQ:debugGz0Ox,False,"['BATTLESHIP', 'CATFISH', 'MAROON', 'CRIMSON', 'INDIGO', 'COD', 'SCHOONER', 'BARGE', 'TAXI', 'GRAY', 'VAN', 'SHARK']","['BATTLESHIP', 'CATFISH', 'MAROON', 'CRIMSON', 'INDIGO', 'COD', 'SCHOONER', 'BARGE', 'TAXI', 'GRAY', 'VAN', 'SHARK']","['CARP', 'SUBWAY', 'CART', 'FERRY']","['SHARK', 'VAN', 'CARP', 'SUBWAY', 'CART', 'GRAY', 'CATFISH', 'TAXI', 'FERRY', 'BARGE', 'SCHOONER', 'COD', 'INDIGO', 'CRIMSON', 'MAROON', 'BATTLESHIP']",12.0,False,"[6141, 4286, 2744, 6263, 3570, 2291, 4220, 4070, 4401, 3914, 6208, 1580]",True,58465.0,categorized_16_1,,,
60,reminder,,reminder,52.0,1599989.0,0.0-48.0,pilot,2,expAv3,debugDZntQ:debugGz0Ox,False,['SUBWAY'],[],"['CARP', 'CART', 'FERRY']","['SHARK', 'VAN', 'CARP', 'SUBWAY', 'CART', 'GRAY', 'CATFISH', 'TAXI', 'FERRY', 'BARGE', 'SCHOONER', 'COD', 'INDIGO', 'CRIMSON', 'MAROON', 'BATTLESHIP']",0.0,False,[3548],,,categorized_16_1,SUBWAY,,
61,text-recall,,text-recall,55.0,1714913.0,0.0-51.0,pilot,2,expAv3,debugDZntQ:debugGz0Ox,False,"['SKA', 'SKA', 'KITCHEN', 'ENTRANCE', 'ROOM', 'TECHNO', 'FOLK', 'CROW', 'CRANE', 'LOBBY', 'FIDDLE']","['SKA', 'KITCHEN', 'ENTRANCE', 'ROOM', 'TECHNO', 'FOLK', 'CROW', 'CRANE', 'LOBBY', 'FIDDLE']","['PENGUIN', 'HARMONICA', 'INSTRUMENTAL', 'CLARINET', 'ACCORDION', 'FINCH']","['FIDDLE', 'PENGUIN', 'LOBBY', 'HARMONICA', 'CRANE', 'INSTRUMENTAL', 'CLARINET', 'ACCORDION', 'FINCH', 'FOLK', 'CROW', 'TECHNO', 'ROOM', 'ENTRANCE', 'SKA', 'KITCHEN']",10.0,False,"[3372, 1587, 4200, 8850, 2207, 5365, 2959, 2784, 4528, 3271, 6716]",True,47743.0,categorized_16_3,,,
62,reminder,,reminder,56.0,1761033.0,0.0-52.0,pilot,2,expAv3,debugDZntQ:debugGz0Ox,False,"['INSTRUMENTAL', 'PENGUIN']",['PENGUIN'],"['HARMONICA', 'CLARINET', 'ACCORDION', 'FINCH']","['FIDDLE', 'PENGUIN', 'LOBBY', 'HARMONICA', 'CRANE', 'INSTRUMENTAL', 'CLARINET', 'ACCORDION', 'FINCH', 'FOLK', 'CROW', 'TECHNO', 'ROOM', 'ENTRANCE', 'SKA', 'KITCHEN']",1.0,False,"[6348, 30394]",,,categorized_16_3,INSTRUMENTAL,,
63,text-recall,,text-recall,59.0,1954531.0,0.0-55.0,pilot,2,expAv3,debugDZntQ:debugGz0Ox,False,"['CELLAR', 'SOLAR', 'OWL', 'DUCK', 'STEAM', 'MONSOON', 'WING', 'PARROT']","['CELLAR', 'SOLAR', 'OWL', 'DUCK', 'STEAM', 'MONSOON', 'WING', 'PARROT']","['FLOOR', 'WATER', 'TSUNAMI', 'FOUNDATION', 'FROST', 'HAWK', 'LIGHTNING', 'ELECTRICITY']","['FLOOR', 'WATER', 'TSUNAMI', 'FOUNDATION', 'FROST', 'HAWK', 'LIGHTNING', 'ELECTRICITY', 'PARROT', 'WING', 'MONSOON', 'STEAM', 'DUCK', 'CELLAR', 'OWL', 'SOLAR']",8.0,False,"[58383, 5123, 2246, 4130, 3241, 5031, 2563, 7508]",True,90000.0,categorized_16_4,,,
64,reminder,,reminder,60.0,1955533.0,0.0-56.0,pilot,2,expAv3,debugDZntQ:debugGz0Ox,False,[],[],[],"['FLOOR', 'WATER', 'TSUNAMI', 'FOUNDATION', 'FROST', 'HAWK', 'LIGHTNING', 'ELECTRICITY', 'PARROT', 'WING', 'MONSOON', 'STEAM', 'DUCK', 'CELLAR', 'OWL', 'SOLAR']",0.0,False,[],,,categorized_16_4,,,
65,text-recall,,text-recall,63.0,2093532.0,0.0-59.0,pilot,2,expAv3,debugDZntQ:debugGz0Ox,False,"['HANDBALL', 'VOLLEYBALL', 'CABINET', 'RAVINE', 'WATERFALL']","['HANDBALL', 'VOLLEYBALL', 'CABINET', 'RAVINE', 'WATERFALL']","['DESK', 'BALLROOM', 'OTTOMAN', 'RIDGE', 'SALSA', 'LAMP', 'SWING', 'WRESTLING', 'VOLCANO', 'BOWLING', 'WALTZ']","['DESK', 'BALLROOM', 'OTTOMAN', 'RIDGE', 'SALSA', 'LAMP', 'SWING', 'WRESTLING', 'VOLLEYBALL', 'WATERFALL', 'VOLCANO', 'BOWLING', 'WALTZ', 'RAVINE', 'CABINET', 'HANDBALL']",5.0,False,"[3821, 3969, 2656, 4509, 53113]",True,74048.0,categorized_16_6,,,
66,reminder,,reminder,64.0,2117061.0,0.0-60.0,pilot,2,expAv3,debugDZntQ:debugGz0Ox,False,['SALSA'],[],"['DESK', 'BALLROOM', 'OTTOMAN', 'RIDGE', 'LAMP', 'SWING', 'WRESTLING', 'VOLCANO', 'BOWLING', 'WALTZ']","['DESK', 'BALLROOM', 'OTTOMAN', 'RIDGE', 'SALSA', 'LAMP', 'SWING', 'WRESTLING', 'VOLLEYBALL', 'WATERFALL', 'VOLCANO', 'BOWLING', 'WALTZ', 'RAVINE', 'CABINET', 'HANDBALL']",0.0,False,[3480],,,categorized_16_6,SALSA,,
67,text-recall,,text-recall,67.0,2198350.0,0.0-63.0,pilot,2,expAv3,debugDZntQ:debugGz0Ox,False,"['GATE', 'GALE', 'TROUSERS', 'PEACOOCK', 'GINGER']","['GALE', 'TROUSERS', 'PEACOCK', 'GINGER']","['VANILLA', 'SNOW', 'FALCON', 'EARTHQUAKE', 'SUGAR', 'DRESS', 'CYCLONE', 'PIGEON', 'BOXERS', 'SPARROW', 'ROBE', 'SAGE']","['VANILLA', 'SNOW', 'FALCON', 'EARTHQUAKE', 'SUGAR', 'DRESS', 'CYCLONE', 'PIGEON', 'GINGER', 'BOXERS', 'SPARROW', 'ROBE', 'SAGE', 'PEACOCK', 'TROUSERS', 'GALE']",4.0,False,"[1657, 2304, 6443, 6017, 3650]",True,24493.0,categorized_16_7,,,
68,reminder,,reminder,68.0,2267862.0,0.0-64.0,pilot,2,expAv3,debugDZntQ:debugGz0Ox,False,"['SAGE', 'VANILLA']",['VANILLA'],"['SNOW', 'FALCON', 'EARTHQUAKE', 'SUGAR', 'DRESS', 'CYCLONE', 'PIGEON', 'BOXERS', 'SPARROW', 'ROBE']","['VANILLA', 'SNOW', 'FALCON', 'EARTHQUAKE', 'SUGAR', 'DRESS', 'CYCLONE', 'PIGEON', 'GINGER', 'BOXERS', 'SPARROW', 'ROBE', 'SAGE', 'PEACOCK', 'TROUSERS', 'GALE']",1.0,False,"[1959, 2128]",,,categorized_16_7,SAGE,,
69,survey-text,"{""Q0"":""Mini-timer would be great, otherwise everything was great\n""}",survey-text,71.0,2381950.0,0.0-67.0,pilot,2,expAv3,debugDZntQ:debugGz0Ox,,,,,,,,,,,,,,
70,total-points,,,,,,,,,debugDZntQ:debugGz0Ox,,,,,,,,,,,,,debugDZntQ:debugGz0Ox,104.0
71,survey-text,"{""Q0"":""61674adfcb34988f84e50070""}",survey-text,0.0,7399.0,0.0-0.0,pilot,1,expAv3,debugZXouQ:debugL6Urp,,,,,,,,,,,,,,
72,text-recall,,text-recall,29.0,1004636.0,0.0-27.0,pilot,1,expAv3,debugZXouQ:debugL6Urp,False,"['STREETCAR', 'TAXI', 'MOOSE', 'GOAT', 'WING', 'TIGER', 'ROOF', 'FLOOR', 'TRAILER']","['STREETCAR', 'TAXI', 'MOOSE', 'GOAT', 'WING', 'TIGER', 'ROOF', 'FLOOR', 'TRAILER']","['VOLLEYBALL', 'DIVING', 'DONKEY', 'GOLF', 'BOXING', 'CART', 'LOBBY']","['TRAILER', 'VOLLEYBALL', 'DIVING', 'FLOOR', 'ROOF', 'STREETCAR', 'DONKEY', 'GOLF', 'MOOSE', 'GOAT', 'BOXING', 'CART', 'LOBBY', 'TIGER', 'WING', 'TAXI']",9.0,False,"[4189, 2081, 2379, 2112, 1726, 4084, 3226, 2843, 4647]",False,55793.0,categorized_16_8,,,
73,reminder,,reminder,30.0,1043634.0,0.0-28.0,pilot,1,expAv3,debugZXouQ:debugL6Urp,False,"['VOLLEYBALL', 'TENNIS']",[],"['DIVING', 'DONKEY', 'GOLF', 'BOXING', 'CART', 'LOBBY']","['TRAILER', 'VOLLEYBALL', 'DIVING', 'FLOOR', 'ROOF', 'STREETCAR', 'DONKEY', 'GOLF', 'MOOSE', 'GOAT', 'BOXING', 'CART', 'LOBBY', 'TIGER', 'WING', 'TAXI']",0.0,False,"[6201, 6573]",,,categorized_16_8,VOLLEYBALL,,
74,text-recall,,text-recall,33.0,1166300.0,0.0-31.0,pilot,1,expAv3,debugZXouQ:debugL6Urp,False,"['SEEDS', 'LAKE', 'STREAM', 'LAKE', 'FISHING', 'SKIING', 'FISH', 'BOAT', 'WRESTLING', 'HILL', 'BOAT']","['SEEDS', 'LAKE', 'STREAM', 'FISHING', 'SKIING', 'BOAT', 'WRESTLING', 'HILL']","['PITCHFORK', 'CARRIAGE', 'BICYCLE', 'SUBWAY', 'TRACK', 'POND', 'HOSE', 'SOIL']","['PITCHFORK', 'CARRIAGE', 'BICYCLE', 'SKIING', 'FISHING', 'WRESTLING', 'SUBWAY', 'TRACK', 'POND', 'HOSE', 'LAKE', 'SOIL', 'BOAT', 'STREAM', 'HILL', 'SEEDS']",8.0,False,"[4573, 1782, 2789, 1712, 2973, 3807, 4874, 4302, 10733, 8614, 6203]",False,58637.0,categorized_16_4,,,
75,reminder,,reminder,34.0,1202634.0,0.0-32.0,pilot,1,expAv3,debugZXouQ:debugL6Urp,False,"['HOSE', 'PITCHFORK']",['PITCHFORK'],"['CARRIAGE', 'BICYCLE', 'SUBWAY', 'TRACK', 'POND', 'SOIL']","['PITCHFORK', 'CARRIAGE', 'BICYCLE', 'SKIING', 'FISHING', 'WRESTLING', 'SUBWAY', 'TRACK', 'POND', 'HOSE', 'LAKE', 'SOIL', 'BOAT', 'STREAM', 'HILL', 'SEEDS']",1.0,False,"[2947, 3782]",,,categorized_16_4,HOSE,,
76,text-recall,,text-recall,37.0,1306316.0,0.0-35.0,pilot,1,expAv3,debugZXouQ:debugL6Urp,False,"['WIND', 'TSUNAMI', 'MANSION', 'JET', 'COTTAGE', 'BOAT', 'GOAT', 'HILL', 'HORLOT']","['WIND', 'TSUNAMI', 'MANSION', 'JET', 'COTTAGE']","['MOTORCYCLE', 'MOSQUITO', 'BLIZZARD', 'BEETLE', 'TROLLEY', 'GALE', 'HOTEL', 'WORM', 'HORNET', 'BUNGALOW', 'VAN']","['JET', 'MANSION', 'MOTORCYCLE', 'MOSQUITO', 'BLIZZARD', 'BEETLE', 'TROLLEY', 'GALE', 'HOTEL', 'COTTAGE', 'WORM', 'HORNET', 'BUNGALOW', 'VAN', 'WIND', 'TSUNAMI']",5.0,False,"[2825, 4081, 3907, 4802, 4052, 6186, 1866, 3369, 6035]",False,42818.0,categorized_16_6,,,
77,reminder,,reminder,38.0,1359299.0,0.0-36.0,pilot,1,expAv3,debugZXouQ:debugL6Urp,False,"['WORM', 'GARDEN', 'MOTORCYCLE', 'BUNGELOW']","['MOTORCYCLE', 'BUNGALOW']","['MOSQUITO', 'BLIZZARD', 'BEETLE', 'TROLLEY', 'GALE', 'HOTEL', 'HORNET', 'VAN']","['JET', 'MANSION', 'MOTORCYCLE', 'MOSQUITO', 'BLIZZARD', 'BEETLE', 'TROLLEY', 'GALE', 'HOTEL', 'COTTAGE', 'WORM', 'HORNET', 'BUNGALOW', 'VAN', 'WIND', 'TSUNAMI']",2.0,False,"[3097, 3224, 10068, 8346]",,,categorized_16_6,WORM,,
78,text-recall,,text-recall,41.0,1474246.0,0.0-39.0,pilot,1,expAv3,debugZXouQ:debugL6Urp,False,"['BALLROOM', 'ROOM', 'TRAIN', 'TRACTOR', 'SALSA', 'BATHROOM', 'LAMP', 'ENTRANCE', 'TRAIN', 'ATTIC']","['BALLROOM', 'ROOM', 'TRAIN', 'TRACTOR', 'SALSA', 'BATHROOM', 'LAMP', 'ENTRANCE', 'ATTIC']","['WAGON', 'HELICOPTER', 'BUREAU', 'OTTOMAN', 'BALLET', 'TANGO', 'CABINET']","['SALSA', 'WAGON', 'ENTRANCE', 'TRAIN', 'TRACTOR', 'HELICOPTER', 'BUREAU', 'ATTIC', 'BATHROOM', 'LAMP', 'ROOM', 'OTTOMAN', 'BALLET', 'TANGO', 'CABINET', 'BALLROOM']",9.0,False,"[3936, 2740, 3037, 7409, 2491, 4300, 2626, 7147, 4516, 12069]",False,58902.0,categorized_16_9,,,
79,reminder,,reminder,42.0,1510645.0,0.0-40.0,pilot,1,expAv3,debugZXouQ:debugL6Urp,False,"['BALLET', 'BALLROOM']",[],"['WAGON', 'HELICOPTER', 'BUREAU', 'OTTOMAN', 'TANGO', 'CABINET']","['SALSA', 'WAGON', 'ENTRANCE', 'TRAIN', 'TRACTOR', 'HELICOPTER', 'BUREAU', 'ATTIC', 'BATHROOM', 'LAMP', 'ROOM', 'OTTOMAN', 'BALLET', 'TANGO', 'CABINET', 'BALLROOM']",0.0,False,"[3873, 6632]",,,categorized_16_9,BALLET,,
80,text-recall,,text-recall,45.0,1604093.0,0.0-43.0,pilot,1,expAv3,debugZXouQ:debugL6Urp,False,"['MANUSCRIPT', 'BRIT', 'BALLOT', 'FRED']",['MANUSCRIPT'],"['TANKER', 'BIRCH', 'REDWOOD', 'DIGEST', 'EVERGREEN', 'CROW', 'CANARY', 'BULLETIN', 'PIGEON', 'FERRY', 'STEAMBOAT', 'BARGE', 'FINCH', 'FIR', 'BOOKLET']","['MANUSCRIPT', 'TANKER', 'BIRCH', 'REDWOOD', 'DIGEST', 'EVERGREEN', 'CROW', 'CANARY', 'BULLETIN', 'PIGEON', 'FERRY', 'STEAMBOAT', 'BARGE', 'FINCH', 'FIR', 'BOOKLET']",1.0,False,"[12237, 4888, 5324, 6340]",False,34372.0,categorized_16_2,,,
81,reminder,,reminder,46.0,1664686.0,0.0-44.0,pilot,1,expAv3,debugZXouQ:debugL6Urp,False,"['STEAMBOAT', 'BUREU']",[],"['TANKER', 'BIRCH', 'REDWOOD', 'DIGEST', 'EVERGREEN', 'CROW', 'CANARY', 'BULLETIN', 'PIGEON', 'FERRY', 'BARGE', 'FINCH', 'FIR', 'BOOKLET']","['MANUSCRIPT', 'TANKER', 'BIRCH', 'REDWOOD', 'DIGEST', 'EVERGREEN', 'CROW', 'CANARY', 'BULLETIN', 'PIGEON', 'FERRY', 'STEAMBOAT', 'BARGE', 'FINCH', 'FIR', 'BOOKLET']",0.0,False,"[6705, 40325]",,,categorized_16_2,STEAMBOAT,,
82,text-recall,,text-recall,49.0,1816819.0,0.0-47.0,pilot,1,expAv3,debugZXouQ:debugL6Urp,False,"['CHICKEN', 'PAMPHLET', 'HAT', 'BLUEGRASS', 'DRESS', 'SWAN', 'PARROT', 'PUNK', 'INSTRUMENT', 'EDITORAL', 'FALCON']","['CHICKEN', 'PAMPHLET', 'HAT', 'BLUEGRASS', 'DRESS', 'SWAN', 'PARROT', 'PUNK', 'EDITORIAL', 'FALCON']","['INSTRUMENTAL', 'BOXERS', 'NOVEL', 'GOSPEL', 'REPORT', 'JEANS']","['BLUEGRASS', 'HAT', 'DRESS', 'PARROT', 'INSTRUMENTAL', 'SWAN', 'FALCON', 'PUNK', 'BOXERS', 'EDITORIAL', 'NOVEL', 'GOSPEL', 'REPORT', 'JEANS', 'PAMPHLET', 'CHICKEN']",10.0,False,"[7476, 5320, 4040, 19905, 9922, 10756, 3082, 11606, 4184, 9567, 4036]",False,90000.0,categorized_16_5,,,
83,reminder,,reminder,50.0,1817912.0,0.0-48.0,pilot,1,expAv3,debugZXouQ:debugL6Urp,False,[],[],[],"['BLUEGRASS', 'HAT', 'DRESS', 'PARROT', 'INSTRUMENTAL', 'SWAN', 'FALCON', 'PUNK', 'BOXERS', 'EDITORIAL', 'NOVEL', 'GOSPEL', 'REPORT', 'JEANS', 'PAMPHLET', 'CHICKEN']",0.0,False,[],,,categorized_16_5,,,
84,text-recall,,text-recall,53.0,1972192.0,0.0-51.0,pilot,1,expAv3,debugZXouQ:debugL6Urp,False,"['RULER', 'PENCIL', 'CATFISH', 'LIME', 'CRANBERRY', 'CHERRY', 'LEVEL', 'RAVINE', 'SCREW', 'PERCH', 'ROGDE', 'GRAPE', 'WATERFALL', 'PLUM']","['RULER', 'PENCIL', 'CATFISH', 'LIME', 'CHERRY', 'LEVEL', 'RAVINE', 'SCREW', 'PERCH', 'GRAPE', 'WATERFALL', 'PLUM']","['SHARK', 'CARP', 'VOLCANO', 'RIDGE']","['CATFISH', 'SHARK', 'CARP', 'VOLCANO', 'PLUM', 'LEVEL', 'CHERRY', 'RAVINE', 'LIME', 'SCREW', 'PERCH', 'RIDGE', 'WATERFALL', 'GRAPE', 'PENCIL', 'RULER']",12.0,False,"[5992, 2746, 2628, 4492, 5641, 5686, 2025, 8267, 5023, 4159, 4058, 3613, 2993, 12239]",False,71554.0,categorized_16_0,,,
85,reminder,,reminder,54.0,1999581.0,0.0-52.0,pilot,1,expAv3,debugZXouQ:debugL6Urp,False,['SHARK'],[],"['CARP', 'VOLCANO', 'RIDGE']","['CATFISH', 'SHARK', 'CARP', 'VOLCANO', 'PLUM', 'LEVEL', 'CHERRY', 'RAVINE', 'LIME', 'SCREW', 'PERCH', 'RIDGE', 'WATERFALL', 'GRAPE', 'PENCIL', 'RULER']",0.0,False,[5609],,,categorized_16_0,SHARK,,
86,text-recall,,text-recall,57.0,2163136.0,0.0-55.0,pilot,1,expAv3,debugZXouQ:debugL6Urp,False,"['HAWK', 'CEDAR', 'SPARROW', 'ELM', 'LETTER', 'PENGUIN', 'JOURNAL', 'CRANE', 'BASEMENT', 'BEECH', 'ELEVATOR', 'WALLS']","['HAWK', 'CEDAR', 'SPARROW', 'ELM', 'LETTER', 'PENGUIN', 'JOURNAL', 'CRANE', 'BASEMENT', 'BEECH', 'ELEVATOR', 'WALLS']","['ENCYCLOPEDIA', 'PORCH', 'NOTE', 'EUCALYPTUS']","['SPARROW', 'CEDAR', 'ENCYCLOPEDIA', 'ELM', 'LETTER', 'JOURNAL', 'PENGUIN', 'BASEMENT', 'CRANE', 'BEECH', 'ELEVATOR', 'WALLS', 'PORCH', 'NOTE', 'EUCALYPTUS', 'HAWK']",12.0,False,"[5157, 12996, 10521, 16664, 5642, 9997, 3561, 10184, 3239, 5636, 4291, 1962]",False,90000.0,categorized_16_3,,,
87,reminder,,reminder,58.0,2164144.0,0.0-56.0,pilot,1,expAv3,debugZXouQ:debugL6Urp,False,[],[],[],"['SPARROW', 'CEDAR', 'ENCYCLOPEDIA', 'ELM', 'LETTER', 'JOURNAL', 'PENGUIN', 'BASEMENT', 'CRANE', 'BEECH', 'ELEVATOR', 'WALLS', 'PORCH', 'NOTE', 'EUCALYPTUS', 'HAWK']",0.0,False,[],,,categorized_16_3,,,
88,text-recall,,text-recall,61.0,2231359.0,0.0-59.0,pilot,1,expAv3,debugZXouQ:debugL6Urp,False,['PEACOCK'],['PEACOCK'],"['VULTURE', 'BROWN', 'STEAM', 'FROST', 'GRAY', 'RAIN', 'CYCLONE', 'WATER', 'NUCLEAR', 'TAN', 'OIL', 'OWL', 'DOVE', 'SNOW', 'CRIMSON']","['VULTURE', 'BROWN', 'STEAM', 'FROST', 'GRAY', 'RAIN', 'CYCLONE', 'WATER', 'NUCLEAR', 'TAN', 'OIL', 'OWL', 'DOVE', 'SNOW', 'CRIMSON', 'PEACOCK']",1.0,False,[3735],False,10693.0,categorized_16_7,,,
89,reminder,,reminder,62.0,2315698.0,0.0-60.0,pilot,1,expAv3,debugZXouQ:debugL6Urp,False,"['DOVE', 'TAN', 'AIR', 'OIL']","['TAN', 'OIL']","['VULTURE', 'BROWN', 'STEAM', 'FROST', 'GRAY', 'RAIN', 'CYCLONE', 'WATER', 'NUCLEAR', 'OWL', 'SNOW', 'CRIMSON']","['VULTURE', 'BROWN', 'STEAM', 'FROST', 'GRAY', 'RAIN', 'CYCLONE', 'WATER', 'NUCLEAR', 'TAN', 'OIL', 'OWL', 'DOVE', 'SNOW', 'CRIMSON', 'PEACOCK']",2.0,False,"[4047, 5683, 34626, 3986]",,,categorized_16_7,DOVE,,
90,text-recall,,text-recall,65.0,2399594.0,0.0-63.0,pilot,1,expAv3,debugZXouQ:debugL6Urp,False,"['LIGHTNING', 'HARP', 'THUNDER', 'GINGER', 'VANILLA']","['LIGHTNING', 'HARP', 'THUNDER', 'GINGER', 'VANILLA']","['FIDDLE', 'LEATHER', 'SAGE', 'HARMONICA', 'CLOUDS', 'VELVET', 'FELT', 'SUGAR', 'TYPHOON', 'CLOTH', 'KEYBOARD']","['FIDDLE', 'LEATHER', 'SAGE', 'HARMONICA', 'THUNDER', 'CLOUDS', 'VELVET', 'FELT', 'GINGER', 'SUGAR', 'TYPHOON', 'CLOTH', 'KEYBOARD', 'VANILLA', 'HARP', 'LIGHTNING']",5.0,False,"[4281, 2351, 3560, 4550, 3415]",True,23755.0,categorized_16_1,,,
91,reminder,,reminder,66.0,2470794.0,0.0-64.0,pilot,1,expAv3,debugZXouQ:debugL6Urp,False,"['VELVERT', 'FELT']",['FELT'],"['FIDDLE', 'LEATHER', 'SAGE', 'HARMONICA', 'CLOUDS', 'SUGAR', 'TYPHOON', 'CLOTH', 'KEYBOARD']","['FIDDLE', 'LEATHER', 'SAGE', 'HARMONICA', 'THUNDER', 'CLOUDS', 'VELVET', 'FELT', 'GINGER', 'SUGAR', 'TYPHOON', 'CLOTH', 'KEYBOARD', 'VANILLA', 'HARP', 'LIGHTNING']",1.0,False,"[4324, 2314]",,,categorized_16_1,VELVET,,
92,survey-text,"{""Q0"":""""}",survey-text,69.0,2492944.0,0.0-67.0,pilot,1,expAv3,debugZXouQ:debugL6Urp,,,,,,,,,,,,,,
93,total-points,,,,,,,,,debugZXouQ:debugL6Urp,,,,,,,,,,,,,debugZXouQ:debugL6Urp,15.0
94,survey-text,"{""Q0"":""6113ace2fc1be74447f32d32""}",survey-text,0.0,6994.0,0.0-0.0,pilot,0,expAv3,debugUdL5s:debugQTkOI,,,,,,,,,,,,,,
95,text-recall,,text-recall,121.0,2067143.0,0.0-27.0,pilot,0,expAv3,debugUdL5s:debugQTkOI,False,"['DESTROYER', 'CROW', 'FOLK', 'SOUL']","['DESTROYER', 'CROW', 'FOLK', 'SOUL']","['FERRY', 'PENCIL', 'SCREW', 'HAWK', 'PIGEON', 'BARGE', 'INSTRUMENTAL', 'CANARY', 'BLUES', 'AXE', 'RULER', 'SCHOONER']","['FERRY', 'PENCIL', 'CROW', 'FOLK', 'SOUL', 'SCREW', 'HAWK', 'PIGEON', 'BARGE', 'INSTRUMENTAL', 'CANARY', 'BLUES', 'AXE', 'RULER', 'SCHOONER', 'DESTROYER']",4.0,False,"[6457, 5440, 2160, 3600]",True,90000.0,categorized_16_1,,,
96,reminder,,reminder,122.0,2068146.0,0.0-28.0,pilot,0,expAv3,debugUdL5s:debugQTkOI,False,[],[],[],"['FERRY', 'PENCIL', 'CROW', 'FOLK', 'SOUL', 'SCREW', 'HAWK', 'PIGEON', 'BARGE', 'INSTRUMENTAL', 'CANARY', 'BLUES', 'AXE', 'RULER', 'SCHOONER', 'DESTROYER']",0.0,False,[],,,categorized_16_1,,,
97,text-recall,,text-recall,125.0,2218209.0,0.0-31.0,pilot,0,expAv3,debugUdL5s:debugQTkOI,True,"['MOUSE', 'OWL', 'LIZARD', 'PENGUIN', 'FENCING', 'VOLLEYBALL', 'TRAIN', 'CHICKEN', 'CART', 'BOAT', 'MOTORCYCLE', 'GOLF', 'RABBIT', 'FALCON', 'GOAT', 'GYMNASTICS']","['MOUSE', 'OWL', 'LIZARD', 'PENGUIN', 'FENCING', 'VOLLEYBALL', 'TRAIN', 'CHICKEN', 'CART', 'BOAT', 'MOTORCYCLE', 'GOLF', 'RABBIT', 'FALCON', 'GOAT', 'GYMNASTICS']",[],"['MOUSE', 'OWL', 'LIZARD', 'PENGUIN', 'FENCING', 'VOLLEYBALL', 'TRAIN', 'CHICKEN', 'CART', 'BOAT', 'MOTORCYCLE', 'GOLF', 'RABBIT', 'FALCON', 'GOAT', 'GYMNASTICS']",16.0,False,"[3276, 2367, 1569, 3088, 3280, 4944, 1360, 2736, 1631, 3313, 4863, 1856, 2657, 3872, 1696, 4464]",True,90000.0,categorized_16_8,,,
98,reminder,,reminder,126.0,2219214.0,0.0-32.0,pilot,0,expAv3,debugUdL5s:debugQTkOI,True,[],[],[],"['MOUSE', 'OWL', 'LIZARD', 'PENGUIN', 'FENCING', 'VOLLEYBALL', 'TRAIN', 'CHICKEN', 'CART', 'BOAT', 'MOTORCYCLE', 'GOLF', 'RABBIT', 'FALCON', 'GOAT', 'GYMNASTICS']",0.0,False,[],,,categorized_16_8,,,
99,text-recall,,text-recall,129.0,2367393.0,0.0-35.0,pilot,0,expAv3,debugUdL5s:debugQTkOI,True,"['SUBWAY', 'CAVE', 'OIL', 'VALLEY', 'NUCLEAR', 'WAGON', 'RIVER', 'JEEP', 'WATER', 'BLUEGREASS', 'SKA', 'TECHNO', 'PUNK', 'ELECTRICITY', 'TROLLEY', 'CANYON']","['SUBWAY', 'CAVE', 'OIL', 'VALLEY', 'NUCLEAR', 'WAGON', 'RIVER', 'JEEP', 'WATER', 'BLUEGRASS', 'SKA', 'TECHNO', 'PUNK', 'ELECTRICITY', 'TROLLEY', 'CANYON']",[],"['SUBWAY', 'CAVE', 'OIL', 'VALLEY', 'NUCLEAR', 'WAGON', 'RIVER', 'JEEP', 'WATER', 'BLUEGRASS', 'SKA', 'TECHNO', 'PUNK', 'ELECTRICITY', 'TROLLEY', 'CANYON']",16.0,False,"[4650, 1488, 1393, 3503, 2896, 2320, 3408, 2656, 2768, 4336, 1488, 4497, 2160, 3567, 3809, 2303]",True,90000.0,categorized_16_2,,,
100,reminder,,reminder,130.0,2368397.0,0.0-36.0,pilot,0,expAv3,debugUdL5s:debugQTkOI,True,[],[],[],"['SUBWAY', 'CAVE', 'OIL', 'VALLEY', 'NUCLEAR', 'WAGON', 'RIVER', 'JEEP', 'WATER', 'BLUEGRASS', 'SKA', 'TECHNO', 'PUNK', 'ELECTRICITY', 'TROLLEY', 'CANYON']",0.0,False,[],,,categorized_16_2,,,
101,text-recall,,text-recall,133.0,2541096.0,0.0-39.0,pilot,0,expAv3,debugUdL5s:debugQTkOI,False,"['SEA', 'FOUNDATION', 'CELLAR', 'BROEN', 'MAPLE', 'MAROON', 'PLATEAU', 'CRIMSON', 'CEDAR', 'ELM', 'SCARLET', 'BATHROOM', 'LOBBY', 'RIDGE', 'ISLAND', 'WILLOW']","['SEA', 'FOUNDATION', 'CELLAR', 'MAPLE', 'MAROON', 'PLATEAU', 'CRIMSON', 'CEDAR', 'ELM', 'SCARLET', 'BATHROOM', 'LOBBY', 'RIDGE', 'ISLAND', 'WILLOW']",['BROWN'],"['SEA', 'FOUNDATION', 'CELLAR', 'BROWN', 'MAPLE', 'MAROON', 'PLATEAU', 'CRIMSON', 'CEDAR', 'ELM', 'SCARLET', 'BATHROOM', 'LOBBY', 'RIDGE', 'ISLAND', 'WILLOW']",15.0,False,"[2602, 5104, 1360, 3936, 2176, 3424, 4144, 4480, 944, 2192, 5072, 2400, 1952, 2336, 3008, 3296]",False,90000.0,categorized_16_9,,,
102,reminder,,reminder,134.0,2542101.0,0.0-40.0,pilot,0,expAv3,debugUdL5s:debugQTkOI,True,[],[],[],"['SEA', 'FOUNDATION', 'CELLAR', 'BROWN', 'MAPLE', 'MAROON', 'PLATEAU', 'CRIMSON', 'CEDAR', 'ELM', 'SCARLET', 'BATHROOM', 'LOBBY', 'RIDGE', 'ISLAND', 'WILLOW']",0.0,False,[],,,categorized_16_9,,,
103,text-recall,,text-recall,137.0,2692239.0,0.0-43.0,pilot,0,expAv3,debugUdL5s:debugQTkOI,False,"['SEEDS', 'POP', 'CLIFF', 'HILL', 'GOSPEL', 'TUNA', 'COD', 'WATERFALL', 'REGGAE', 'SHARK', 'PITHFORK', 'POND', 'PERCH', 'CLIPPERS', 'OPERA']","['SEEDS', 'POP', 'CLIFF', 'HILL', 'GOSPEL', 'TUNA', 'COD', 'WATERFALL', 'REGGAE', 'SHARK', 'PITCHFORK', 'POND', 'PERCH', 'CLIPPERS', 'OPERA']",['SOIL'],"['SOIL', 'SEEDS', 'POP', 'CLIFF', 'GOSPEL', 'TUNA', 'WATERFALL', 'REGGAE', 'SHARK', 'PITCHFORK', 'POND', 'COD', 'HILL', 'PERCH', 'CLIPPERS', 'OPERA']",15.0,False,"[2875, 3776, 2416, 2144, 1248, 2560, 752, 5008, 2992, 991, 4304, 2607, 7553, 3231, 2657]",True,90000.0,categorized_16_4,,,
104,reminder,,reminder,138.0,2693243.0,0.0-44.0,pilot,0,expAv3,debugUdL5s:debugQTkOI,True,[],[],[],"['SOIL', 'SEEDS', 'POP', 'CLIFF', 'GOSPEL', 'TUNA', 'WATERFALL', 'REGGAE', 'SHARK', 'PITCHFORK', 'POND', 'COD', 'HILL', 'PERCH', 'CLIPPERS', 'OPERA']",0.0,False,[],,,categorized_16_4,,,
105,text-recall,,text-recall,141.0,2848041.0,0.0-47.0,pilot,0,expAv3,debugUdL5s:debugQTkOI,True,"['CRANE', 'SWAN', 'ROOM', 'PORCH', 'ATTIC', 'PEACOCK', 'DUCK', 'SWIMMING', 'DORMITORY', 'SWAN', 'BADMINTON', 'COTTAGE', 'BOXING', 'HOTEL', 'PALACE', 'SAILING', 'FLOOR']","['CRANE', 'SWAN', 'ROOM', 'PORCH', 'ATTIC', 'PEACOCK', 'DUCK', 'SWIMMING', 'DORMITORY', 'BADMINTON', 'COTTAGE', 'BOXING', 'HOTEL', 'PALACE', 'SAILING', 'FLOOR']",[],"['CRANE', 'ROOM', 'ATTIC', 'PEACOCK', 'DUCK', 'SWIMMING', 'DORMITORY', 'PORCH', 'SWAN', 'BADMINTON', 'COTTAGE', 'BOXING', 'HOTEL', 'PALACE', 'SAILING', 'FLOOR']",16.0,False,"[3463, 1616, 1104, 1728, 1104, 6432, 1104, 2000, 3968, 4384, 5408, 3136, 2032, 2000, 2624, 3216, 3071]",True,90000.0,categorized_16_5,,,
106,reminder,,reminder,142.0,2849044.0,0.0-48.0,pilot,0,expAv3,debugUdL5s:debugQTkOI,True,[],[],[],"['CRANE', 'ROOM', 'ATTIC', 'PEACOCK', 'DUCK', 'SWIMMING', 'DORMITORY', 'PORCH', 'SWAN', 'BADMINTON', 'COTTAGE', 'BOXING', 'HOTEL', 'PALACE', 'SAILING', 'FLOOR']",0.0,False,[],,,categorized_16_5,,,
107,text-recall,,text-recall,145.0,3006254.0,0.0-51.0,pilot,0,expAv3,debugUdL5s:debugQTkOI,True,"['PLUM', 'CEILING', 'GRAPE', 'CHERRY', 'FOG', 'ENTRANCE', 'FINCH', 'FIG', 'SPWARROW', 'BLIZZARD', 'CYCLONE', 'DOVE', 'KITCHEN', 'VULTURE', 'BASEMENT', 'FLOOD']","['PLUM', 'CEILING', 'GRAPE', 'CHERRY', 'FOG', 'ENTRANCE', 'FINCH', 'FIG', 'SPARROW', 'BLIZZARD', 'CYCLONE', 'DOVE', 'KITCHEN', 'VULTURE', 'BASEMENT', 'FLOOD']",[],"['PLUM', 'CEILING', 'GRAPE', 'CHERRY', 'FOG', 'ENTRANCE', 'FINCH', 'FIG', 'SPARROW', 'BLIZZARD', 'CYCLONE', 'DOVE', 'KITCHEN', 'VULTURE', 'BASEMENT', 'FLOOD']",16.0,False,"[4299, 1776, 3456, 2528, 3344, 3424, 5552, 1424, 1520, 3776, 2496, 4720, 1824, 2464, 2544, 3200]",True,90000.0,categorized_16_6,,,
108,reminder,,reminder,146.0,3007256.0,0.0-52.0,pilot,0,expAv3,debugUdL5s:debugQTkOI,True,[],[],[],"['PLUM', 'CEILING', 'GRAPE', 'CHERRY', 'FOG', 'ENTRANCE', 'FINCH', 'FIG', 'SPARROW', 'BLIZZARD', 'CYCLONE', 'DOVE', 'KITCHEN', 'VULTURE', 'BASEMENT', 'FLOOD']",0.0,False,[],,,categorized_16_6,,,
109,text-recall,,text-recall,149.0,3160115.0,0.0-55.0,pilot,0,expAv3,debugUdL5s:debugQTkOI,True,"['THUNDER', 'BALLROOM', 'TIGER', 'VANILLA', 'BALLET', 'SWING', 'MONSOON', 'RAIN', 'SALSA', 'DONKEY', 'ANTELOPE', 'SAGE', 'SUGAR', 'PIG', 'GINGER', 'TSUNAMI']","['THUNDER', 'BALLROOM', 'TIGER', 'VANILLA', 'BALLET', 'SWING', 'MONSOON', 'RAIN', 'SALSA', 'DONKEY', 'ANTELOPE', 'SAGE', 'SUGAR', 'PIG', 'GINGER', 'TSUNAMI']",[],"['THUNDER', 'BALLROOM', 'TIGER', 'VANILLA', 'BALLET', 'SWING', 'MONSOON', 'RAIN', 'SALSA', 'DONKEY', 'ANTELOPE', 'SAGE', 'SUGAR', 'PIG', 'GINGER', 'TSUNAMI']",16.0,False,"[5451, 2016, 1424, 3888, 3920, 1584, 3200, 1776, 3040, 3888, 3104, 2512, 2993, 2544, 3824, 3024]",True,90000.0,categorized_16_3,,,
110,reminder,,reminder,150.0,3161119.0,0.0-56.0,pilot,0,expAv3,debugUdL5s:debugQTkOI,True,[],[],[],"['THUNDER', 'BALLROOM', 'TIGER', 'VANILLA', 'BALLET', 'SWING', 'MONSOON', 'RAIN', 'SALSA', 'DONKEY', 'ANTELOPE', 'SAGE', 'SUGAR', 'PIG', 'GINGER', 'TSUNAMI']",0.0,False,[],,,categorized_16_3,,,
111,text-recall,,text-recall,153.0,3326616.0,0.0-59.0,pilot,0,expAv3,debugUdL5s:debugQTkOI,False,"['WALLS', 'ENCYCLOPEDIA', 'COAT', 'BLOCKS', 'ELEVATOR', 'BELY', 'VELT', 'BELT', 'LETTER', 'ROOF', 'PUZZLE', 'WING', 'REPORT', 'NINTENDO', 'DIGEST', 'SHORTS', 'SKIRT', 'KITE']","['WALLS', 'ENCYCLOPEDIA', 'COAT', 'BLOCKS', 'ELEVATOR', 'BELT', 'LETTER', 'ROOF', 'PUZZLE', 'WING', 'REPORT', 'DIGEST', 'SHORTS', 'SKIRT', 'KITE']",['NINTENDO'],"['WALLS', 'COAT', 'BLOCKS', 'ELEVATOR', 'BELT', 'LETTER', 'ROOF', 'ENCYCLOPEDIA', 'PUZZLE', 'WING', 'REPORT', 'NINTENDO', 'DIGEST', 'SHORTS', 'SKIRT', 'KITE']",15.0,False,"[4075, 3231, 896, 2464, 3024, 2544, 1504, 1504, 1360, 1856, 6208, 2529, 3439, 4320, 2448, 2144, 2608, 2801]",True,90000.0,categorized_16_7,,,
112,reminder,,reminder,154.0,3327619.0,0.0-60.0,pilot,0,expAv3,debugUdL5s:debugQTkOI,True,[],[],[],"['WALLS', 'COAT', 'BLOCKS', 'ELEVATOR', 'BELT', 'LETTER', 'ROOF', 'ENCYCLOPEDIA', 'PUZZLE', 'WING', 'REPORT', 'NINTENDO', 'DIGEST', 'SHORTS', 'SKIRT', 'KITE']",0.0,False,[],,,categorized_16_7,,,
113,text-recall,,text-recall,157.0,3479043.0,0.0-63.0,pilot,0,expAv3,debugUdL5s:debugQTkOI,False,"['HARMONICA', 'ACCORDION', 'RUGHYBEECH', 'CABINET', 'CLARNITE', 'TRACK', 'LAMP', 'WE\\RESTLING', 'BUREAU', 'SKIING', 'DESK', 'FIR', 'BANJO', 'REDWOOD', 'POPLAR']","['HARMONICA', 'ACCORDION', 'CABINET', 'TRACK', 'LAMP', 'BUREAU', 'SKIING', 'DESK', 'FIR', 'BANJO', 'REDWOOD', 'POPLAR']","['RUGBY', 'BEECH', 'CLARINET', 'WRESTLING']","['HARMONICA', 'ACCORDION', 'RUGBY', 'BEECH', 'CABINET', 'CLARINET', 'TRACK', 'LAMP', 'WRESTLING', 'BUREAU', 'SKIING', 'DESK', 'FIR', 'BANJO', 'REDWOOD', 'POPLAR']",12.0,False,"[3739, 3488, 4832, 2929, 3407, 2384, 3104, 5087, 2736, 1232, 2721, 2848, 3920, 3039, 3473]",True,90000.0,categorized_16_0,,,
114,reminder,,reminder,158.0,3480049.0,0.0-64.0,pilot,0,expAv3,debugUdL5s:debugQTkOI,False,[],[],[],"['HARMONICA', 'ACCORDION', 'RUGBY', 'BEECH', 'CABINET', 'CLARINET', 'TRACK', 'LAMP', 'WRESTLING', 'BUREAU', 'SKIING', 'DESK', 'FIR', 'BANJO', 'REDWOOD', 'POPLAR']",0.0,False,[],,,categorized_16_0,,,
115,survey-text,"{""Q0"":""It was hard to understand how this whole test worked. It took me 20min to start it because i need to spell \""HAPPINESS\"" not the other two words.""}",survey-text,161.0,3544454.0,0.0-67.0,pilot,0,expAv3,debugUdL5s:debugQTkOI,,,,,,,,,,,,,,
116,total-points,,,,,,,,,debugUdL5s:debugQTkOI,,,,,,,,,,,,,debugUdL5s:debugQTkOI,114.0
117,survey-text,"{""Q0"":""602e3256b9bd9291e86a4a12""}",survey-text,0.0,3698.0,0.0-0.0,pilot,7,expAv3,debug7T5Yo:debugXYwDG,,,,,,,,,,,,,,
118,survey-text,"{""Q0"":""603d11a9240c9703520cbdfb""}",survey-text,0.0,3593.0,0.0-0.0,pilot,5,expAv3,debugFu3Fz:debugPWLU6,,,,,,,,,,,,,,
119,text-recall,,text-recall,25.0,668322.0,0.0-27.0,pilot,5,expAv3,debugFu3Fz:debugPWLU6,True,"['DETROYER', 'OTTOMAN', 'VELVET', 'FELT', 'LEATHER', 'SWING', 'BALLROOM', 'DESK', 'CABINET', 'OTTOMAN', 'LINEN', 'VELVET', 'SCHOONER', 'WALTZ', 'TANKER', 'SALSA', 'BUREAU', 'LEATHER', 'BARGE']","['DESTROYER', 'OTTOMAN', 'VELVET', 'FELT', 'LEATHER', 'SWING', 'BALLROOM', 'DESK', 'CABINET', 'LINEN', 'SCHOONER', 'WALTZ', 'TANKER', 'SALSA', 'BUREAU', 'BARGE']",[],"['DESK', 'CABINET', 'LINEN', 'BALLROOM', 'SCHOONER', 'WALTZ', 'BUREAU', 'TANKER', 'SALSA', 'SWING', 'FELT', 'LEATHER', 'VELVET', 'BARGE', 'OTTOMAN', 'DESTROYER']",16.0,False,"[3108, 2438, 1599, 615, 1222, 779, 1573, 9108, 1010, 2014, 3750, 1063, 7629, 1356, 4372, 2634, 2011, 14408, 2347]",True,90000.0,categorized_16_3,,,
120,reminder,,reminder,26.0,669326.0,0.0-28.0,pilot,5,expAv3,debugFu3Fz:debugPWLU6,True,[],[],[],"['DESK', 'CABINET', 'LINEN', 'BALLROOM', 'SCHOONER', 'WALTZ', 'BUREAU', 'TANKER', 'SALSA', 'SWING', 'FELT', 'LEATHER', 'VELVET', 'BARGE', 'OTTOMAN', 'DESTROYER']",0.0,False,[],,,categorized_16_3,,,
121,text-recall,,text-recall,29.0,811581.0,0.0-31.0,pilot,5,expAv3,debugFu3Fz:debugPWLU6,True,"['BUNGALOW', 'COTTAGE', 'PALACE', 'SQUIRREL', 'FOX', 'MOOSE', 'BLUES', 'SOUL', 'MANSION', 'POP', 'EDITORIAL', 'INSTRUMENTAL', 'NOTE', 'PAPER', 'RABBIT', 'MANUSCRIPT']","['BUNGALOW', 'COTTAGE', 'PALACE', 'SQUIRREL', 'FOX', 'MOOSE', 'BLUES', 'SOUL', 'MANSION', 'POP', 'EDITORIAL', 'INSTRUMENTAL', 'NOTE', 'PAPER', 'RABBIT', 'MANUSCRIPT']",[],"['COTTAGE', 'MANSION', 'PALACE', 'BLUES', 'SOUL', 'SQUIRREL', 'FOX', 'EDITORIAL', 'NOTE', 'PAPER', 'INSTRUMENTAL', 'MOOSE', 'RABBIT', 'POP', 'MANUSCRIPT', 'BUNGALOW']",16.0,False,"[3515, 1507, 966, 2031, 929, 1079, 1149, 2017, 9871, 6597, 9084, 2198, 1693, 3205, 9122, 8602]",True,79828.0,categorized_16_5,,,
122,reminder,,reminder,30.0,812583.0,0.0-32.0,pilot,5,expAv3,debugFu3Fz:debugPWLU6,True,[],[],[],"['COTTAGE', 'MANSION', 'PALACE', 'BLUES', 'SOUL', 'SQUIRREL', 'FOX', 'EDITORIAL', 'NOTE', 'PAPER', 'INSTRUMENTAL', 'MOOSE', 'RABBIT', 'POP', 'MANUSCRIPT', 'BUNGALOW']",0.0,False,[],,,categorized_16_5,,,
123,text-recall,,text-recall,33.0,936659.0,0.0-35.0,pilot,5,expAv3,debugFu3Fz:debugPWLU6,True,"['ESSAY', 'MAPLE', 'EVERGREEN', 'CEDAR', 'TRAILER', 'BICYCLE', 'JET', 'AXE', 'LETTER', 'BULLETIN', 'PENCIL', 'BOLT', 'PAMPHLET', 'LEVEL', 'VAN', 'MAPLE', 'ELM', 'ESSAY']","['ESSAY', 'MAPLE', 'EVERGREEN', 'CEDAR', 'TRAILER', 'BICYCLE', 'JET', 'AXE', 'LETTER', 'BULLETIN', 'PENCIL', 'BOLT', 'PAMPHLET', 'LEVEL', 'VAN', 'ELM']",[],"['CEDAR', 'BICYCLE', 'JET', 'LETTER', 'AXE', 'PENCIL', 'BULLETIN', 'PAMPHLET', 'BOLT', 'TRAILER', 'VAN', 'LEVEL', 'MAPLE', 'ELM', 'EVERGREEN', 'ESSAY']",16.0,False,"[3008, 1096, 2285, 6194, 3404, 1334, 615, 7443, 3141, 2206, 1673, 4677, 4321, 5945, 2163, 3263, 770, 4839]",True,61902.0,categorized_16_0,,,
124,reminder,,reminder,34.0,937662.0,0.0-36.0,pilot,5,expAv3,debugFu3Fz:debugPWLU6,True,[],[],[],"['CEDAR', 'BICYCLE', 'JET', 'LETTER', 'AXE', 'PENCIL', 'BULLETIN', 'PAMPHLET', 'BOLT', 'TRAILER', 'VAN', 'LEVEL', 'MAPLE', 'ELM', 'EVERGREEN', 'ESSAY']",0.0,False,[],,,categorized_16_0,,,
125,text-recall,,text-recall,37.0,1071471.0,0.0-39.0,pilot,5,expAv3,debugFu3Fz:debugPWLU6,True,"['PLATEAU', 'BOWLING', 'DESERT', 'SEA', 'RIVER', 'FOUNDATION', 'PORCH', 'WING', 'FALCON', 'SPARROW', 'SWIMMING', 'WRESTLING', 'PEACOCK', 'PENGUIN', 'BATHROOM', 'TRACK']","['PLATEAU', 'BOWLING', 'DESERT', 'SEA', 'RIVER', 'FOUNDATION', 'PORCH', 'WING', 'FALCON', 'SPARROW', 'SWIMMING', 'WRESTLING', 'PEACOCK', 'PENGUIN', 'BATHROOM', 'TRACK']",[],"['WING', 'FALCON', 'SWIMMING', 'SPARROW', 'FOUNDATION', 'PORCH', 'WRESTLING', 'SEA', 'PENGUIN', 'PEACOCK', 'DESERT', 'BATHROOM', 'RIVER', 'TRACK', 'BOWLING', 'PLATEAU']",16.0,False,"[3950, 1120, 1064, 840, 2337, 1954, 844, 675, 1523, 4045, 17308, 6926, 8240, 1668, 6043, 6449]",True,72434.0,categorized_16_7,,,
126,reminder,,reminder,38.0,1072473.0,0.0-40.0,pilot,5,expAv3,debugFu3Fz:debugPWLU6,True,[],[],[],"['WING', 'FALCON', 'SWIMMING', 'SPARROW', 'FOUNDATION', 'PORCH', 'WRESTLING', 'SEA', 'PENGUIN', 'PEACOCK', 'DESERT', 'BATHROOM', 'RIVER', 'TRACK', 'BOWLING', 'PLATEAU']",0.0,False,[],,,categorized_16_7,,,
127,text-recall,,text-recall,41.0,1195832.0,0.0-43.0,pilot,5,expAv3,debugFu3Fz:debugPWLU6,True,"['SKIRT', 'TROUSERS', 'CYCLONE', 'TSUNAMI', 'BELT', 'DONKEY', 'PIG', 'CAMEL', 'COAT', 'WOLF', 'TROLLEY', 'TSUNAMI', 'HAIL', 'TRACTOR', 'STREETCAR', 'WAGON', 'FLOOD']","['SKIRT', 'TROUSERS', 'CYCLONE', 'TSUNAMI', 'BELT', 'DONKEY', 'PIG', 'CAMEL', 'COAT', 'WOLF', 'TROLLEY', 'HAIL', 'TRACTOR', 'STREETCAR', 'WAGON', 'FLOOD']",[],"['DONKEY', 'COAT', 'TROLLEY', 'PIG', 'CAMEL', 'WOLF', 'TROUSERS', 'TSUNAMI', 'HAIL', 'WAGON', 'TRACTOR', 'STREETCAR', 'FLOOD', 'BELT', 'CYCLONE', 'SKIRT']",16.0,False,"[4035, 1881, 1467, 1464, 1366, 970, 818, 1140, 8896, 11727, 3338, 6339, 889, 5282, 2596, 890, 4929]",True,67122.0,categorized_16_8,,,
128,reminder,,reminder,42.0,1196836.0,0.0-44.0,pilot,5,expAv3,debugFu3Fz:debugPWLU6,True,[],[],[],"['DONKEY', 'COAT', 'TROLLEY', 'PIG', 'CAMEL', 'WOLF', 'TROUSERS', 'TSUNAMI', 'HAIL', 'WAGON', 'TRACTOR', 'STREETCAR', 'FLOOD', 'BELT', 'CYCLONE', 'SKIRT']",0.0,False,[],,,categorized_16_8,,,
129,text-recall,,text-recall,45.0,1325113.0,0.0-47.0,pilot,5,expAv3,debugFu3Fz:debugPWLU6,False,"['PUZZLE', 'INDIGO', 'NINTENDO', 'TYPHOON', 'MAROON', 'CANYON', 'BROWN', 'BLIZZARD', 'SUNSHINE', 'LIGHTNING', 'TAN', 'KITE', 'STREAM', 'CAVE', 'GLACIER', 'BALL']","['PUZZLE', 'INDIGO', 'TYPHOON', 'MAROON', 'CANYON', 'BROWN', 'BLIZZARD', 'SUNSHINE', 'LIGHTNING', 'TAN', 'KITE', 'STREAM', 'CAVE', 'GLACIER', 'BALL']",['NINTENDO'],"['BLIZZARD', 'TAN', 'NINTENDO', 'SUNSHINE', 'LIGHTNING', 'KITE', 'STREAM', 'CAVE', 'INDIGO', 'GLACIER', 'MAROON', 'CANYON', 'BALL', 'TYPHOON', 'BROWN', 'PUZZLE']",15.0,False,"[3444, 1020, 1418, 1277, 1961, 1544, 2781, 8424, 6694, 2787, 1191, 1813, 5900, 794, 6583, 8323]",True,67963.0,categorized_16_2,,,
130,reminder,,reminder,46.0,1326117.0,0.0-48.0,pilot,5,expAv3,debugFu3Fz:debugPWLU6,True,[],[],[],"['BLIZZARD', 'TAN', 'NINTENDO', 'SUNSHINE', 'LIGHTNING', 'KITE', 'STREAM', 'CAVE', 'INDIGO', 'GLACIER', 'MAROON', 'CANYON', 'BALL', 'TYPHOON', 'BROWN', 'PUZZLE']",0.0,False,[],,,categorized_16_2,,,
131,text-recall,,text-recall,49.0,1451989.0,0.0-51.0,pilot,5,expAv3,debugFu3Fz:debugPWLU6,True,"['JEEP', 'BIRCH', 'SUBWAY', 'MANGO', 'PLUM', 'WASP', 'BUTTERFLY', 'REDWOOD', 'BEETLE', 'WILLOW', 'MOTORCYCLE', 'PLUM', 'CHERRY', 'GRAPE', 'HELICOPTER', 'EUCALYPTUS', 'WORM', 'SUBWAY', 'BIRCH']","['JEEP', 'BIRCH', 'SUBWAY', 'MANGO', 'PLUM', 'WASP', 'BUTTERFLY', 'REDWOOD', 'BEETLE', 'WILLOW', 'MOTORCYCLE', 'CHERRY', 'GRAPE', 'HELICOPTER', 'EUCALYPTUS', 'WORM']",[],"['BUTTERFLY', 'REDWOOD', 'WILLOW', 'BEETLE', 'WASP', 'MANGO', 'MOTORCYCLE', 'PLUM', 'CHERRY', 'GRAPE', 'HELICOPTER', 'EUCALYPTUS', 'WORM', 'SUBWAY', 'BIRCH', 'JEEP']",16.0,False,"[2780, 1138, 1448, 1018, 1182, 884, 6781, 3255, 4146, 4608, 5389, 2311, 2914, 2640, 3841, 3244, 2721, 2558, 4430]",True,63651.0,categorized_16_1,,,
132,reminder,,reminder,50.0,1452994.0,0.0-52.0,pilot,5,expAv3,debugFu3Fz:debugPWLU6,True,[],[],[],"['BUTTERFLY', 'REDWOOD', 'WILLOW', 'BEETLE', 'WASP', 'MANGO', 'MOTORCYCLE', 'PLUM', 'CHERRY', 'GRAPE', 'HELICOPTER', 'EUCALYPTUS', 'WORM', 'SUBWAY', 'BIRCH', 'JEEP']",0.0,False,[],,,categorized_16_1,,,
133,text-recall,,text-recall,53.0,1573513.0,0.0-55.0,pilot,5,expAv3,debugFu3Fz:debugPWLU6,True,"['COD', 'SHARK', 'ISLAND', 'PUNK', 'VALLEY', 'HARMONICA', 'FIDDLE', 'FOLK', 'PLAIN', 'LAKE', 'BANJO', 'OPERA', 'TUNA', 'CATFISH', 'ACCORDION', 'SKA', 'ISLAND', 'PUNK']","['COD', 'SHARK', 'ISLAND', 'PUNK', 'VALLEY', 'HARMONICA', 'FIDDLE', 'FOLK', 'PLAIN', 'LAKE', 'BANJO', 'OPERA', 'TUNA', 'CATFISH', 'ACCORDION', 'SKA']",[],"['FIDDLE', 'FOLK', 'PLAIN', 'VALLEY', 'HARMONICA', 'LAKE', 'BANJO', 'OPERA', 'TUNA', 'CATFISH', 'ACCORDION', 'COD', 'SHARK', 'SKA', 'ISLAND', 'PUNK']",16.0,False,"[1577, 927, 970, 952, 1291, 1342, 7583, 3634, 3302, 8179, 4120, 1834, 3420, 3497, 3395, 8246, 2657, 2940]",True,63523.0,categorized_16_6,,,
134,reminder,,reminder,54.0,1574518.0,0.0-56.0,pilot,5,expAv3,debugFu3Fz:debugPWLU6,True,[],[],[],"['FIDDLE', 'FOLK', 'PLAIN', 'VALLEY', 'HARMONICA', 'LAKE', 'BANJO', 'OPERA', 'TUNA', 'CATFISH', 'ACCORDION', 'COD', 'SHARK', 'SKA', 'ISLAND', 'PUNK']",0.0,False,[],,,categorized_16_6,,,
135,text-recall,,text-recall,57.0,1699181.0,0.0-59.0,pilot,5,expAv3,debugFu3Fz:debugPWLU6,True,"['BOOKLET', 'MONSOON', 'CLIPPERS', 'FOG', 'FROST', 'ELECTRICITY', 'SNOW', 'BOOKLET', 'JOURNAL', 'BUCKET', 'STEAM', 'ENCYCLOPEDIA', 'NOVEL', 'WATER', 'SOLAR', 'SEEDS', 'CLIPPERS', 'SOIL', 'ELECTRICITY']","['BOOKLET', 'MONSOON', 'CLIPPERS', 'FOG', 'FROST', 'ELECTRICITY', 'SNOW', 'JOURNAL', 'BUCKET', 'STEAM', 'ENCYCLOPEDIA', 'NOVEL', 'WATER', 'SOLAR', 'SEEDS', 'SOIL']",[],"['SNOW', 'JOURNAL', 'BUCKET', 'STEAM', 'NOVEL', 'ENCYCLOPEDIA', 'WATER', 'SOLAR', 'SEEDS', 'CLIPPERS', 'MONSOON', 'ELECTRICITY', 'SOIL', 'FOG', 'FROST', 'BOOKLET']",16.0,False,"[3373, 1100, 1297, 1152, 993, 2390, 5275, 5656, 1631, 1504, 1851, 8043, 968, 2211, 741, 3058, 4086, 8168, 4677]",True,66317.0,categorized_16_4,,,
136,reminder,,reminder,58.0,1700186.0,0.0-60.0,pilot,5,expAv3,debugFu3Fz:debugPWLU6,True,[],[],[],"['SNOW', 'JOURNAL', 'BUCKET', 'STEAM', 'NOVEL', 'ENCYCLOPEDIA', 'WATER', 'SOLAR', 'SEEDS', 'CLIPPERS', 'MONSOON', 'ELECTRICITY', 'SOIL', 'FOG', 'FROST', 'BOOKLET']",0.0,False,[],,,categorized_16_4,,,
137,text-recall,,text-recall,61.0,1829844.0,0.0-63.0,pilot,5,expAv3,debugFu3Fz:debugPWLU6,True,"['BLUEGRASS', 'GOSPEL', 'SYMPHONY', 'CROW', 'CANARY', 'REGGAE', 'WIND', 'TRAIN', 'CARRIAGE', 'BOAT', 'DROUGHT', 'SYMPHONY', 'PARROT', 'RAIN', 'CART', 'CLOUDS', 'HAWK']","['BLUEGRASS', 'GOSPEL', 'SYMPHONY', 'CROW', 'CANARY', 'REGGAE', 'WIND', 'TRAIN', 'CARRIAGE', 'BOAT', 'DROUGHT', 'PARROT', 'RAIN', 'CART', 'CLOUDS', 'HAWK']",[],"['BOAT', 'CARRIAGE', 'WIND', 'GOSPEL', 'TRAIN', 'SYMPHONY', 'DROUGHT', 'REGGAE', 'PARROT', 'RAIN', 'CART', 'CROW', 'CANARY', 'CLOUDS', 'HAWK', 'BLUEGRASS']",16.0,False,"[2951, 1774, 2383, 1039, 1234, 1627, 2770, 7742, 1296, 952, 12919, 2546, 3054, 2518, 3336, 9227, 3588]",True,67763.0,categorized_16_9,,,
138,reminder,,reminder,62.0,1830848.0,0.0-64.0,pilot,5,expAv3,debugFu3Fz:debugPWLU6,True,[],[],[],"['BOAT', 'CARRIAGE', 'WIND', 'GOSPEL', 'TRAIN', 'SYMPHONY', 'DROUGHT', 'REGGAE', 'PARROT', 'RAIN', 'CART', 'CROW', 'CANARY', 'CLOUDS', 'HAWK', 'BLUEGRASS']",0.0,False,[],,,categorized_16_9,,,
139,survey-text,"{""Q0"":""""}",survey-text,65.0,1843887.0,0.0-67.0,pilot,5,expAv3,debugFu3Fz:debugPWLU6,,,,,,,,,,,,,,
140,total-points,,,,,,,,,debugFu3Fz:debugPWLU6,,,,,,,,,,,,,debugFu3Fz:debugPWLU6,174.0
141,survey-text,"{""Q0"":""5ed14691e983f5067842fd20""}",survey-text,0.0,18669.0,0.0-0.0,pilot,3,expAv3,debugj4qkf:debugNZEBh,,,,,,,,,,,,,,
142,text-recall,,text-recall,27.0,673405.0,0.0-27.0,pilot,3,expAv3,debugj4qkf:debugNZEBh,False,"['LAKE', 'VANILLA', 'SUGAR', 'GINGER', 'TAXI', 'NINTENDO', 'KITE', 'BALL', 'SUBWAY']","['LAKE', 'VANILLA', 'SUGAR', 'GINGER', 'TAXI', 'KITE', 'BALL', 'SUBWAY']","['VAN', 'CARRIAGE', 'DESERT', 'NINTENDO', 'CANYON', 'PUZZLE', 'GORGE', 'SAGE']","['LAKE', 'VANILLA', 'GINGER', 'TAXI', 'SUGAR', 'VAN', 'CARRIAGE', 'DESERT', 'NINTENDO', 'CANYON', 'PUZZLE', 'GORGE', 'SAGE', 'BALL', 'KITE', 'SUBWAY']",8.0,False,"[1426, 2174, 1847, 2244, 1311, 6256, 2349, 1868, 13308]",False,55853.0,categorized_16_2,,,
143,reminder,,reminder,28.0,711497.0,0.0-28.0,pilot,3,expAv3,debugj4qkf:debugNZEBh,False,['CANYON'],[],"['VAN', 'CARRIAGE', 'DESERT', 'NINTENDO', 'PUZZLE', 'GORGE', 'SAGE']","['LAKE', 'VANILLA', 'GINGER', 'TAXI', 'SUGAR', 'VAN', 'CARRIAGE', 'DESERT', 'NINTENDO', 'CANYON', 'PUZZLE', 'GORGE', 'SAGE', 'BALL', 'KITE', 'SUBWAY']",0.0,False,[2467],,,categorized_16_2,CANYON,,
144,text-recall,,text-recall,31.0,825799.0,0.0-31.0,pilot,3,expAv3,debugj4qkf:debugNZEBh,False,"['TUNA', 'STREETCAR', 'STEAMBOAT', 'BOAT', 'BYCICLE', 'FERRY', 'PITCHFORK', 'BATTLESHIP']","['TUNA', 'STREETCAR', 'STEAMBOAT', 'BOAT', 'FERRY', 'PITCHFORK', 'BATTLESHIP']","['SEEDS', 'SOIL', 'CATFISH', 'TRAIN', 'CARP', 'DESTROYER', 'COD', 'BICYCLE', 'HOSE']","['PITCHFORK', 'SEEDS', 'SOIL', 'CATFISH', 'TRAIN', 'CARP', 'BATTLESHIP', 'FERRY', 'DESTROYER', 'COD', 'BICYCLE', 'BOAT', 'STREETCAR', 'HOSE', 'STEAMBOAT', 'TUNA']",7.0,False,"[1682, 2764, 2124, 1918, 10187, 4546, 6446, 2431]",True,52560.0,categorized_16_3,,,
145,reminder,,reminder,32.0,867248.0,0.0-32.0,pilot,3,expAv3,debugj4qkf:debugNZEBh,False,"['COAT', 'COAL']",[],"['SEEDS', 'SOIL', 'CATFISH', 'TRAIN', 'CARP', 'COD', 'BICYCLE', 'HOSE']","['PITCHFORK', 'SEEDS', 'SOIL', 'CATFISH', 'TRAIN', 'CARP', 'BATTLESHIP', 'FERRY', 'DESTROYER', 'COD', 'BICYCLE', 'BOAT', 'STREETCAR', 'HOSE', 'STEAMBOAT', 'TUNA']",0.0,False,"[13362, 8817]",,,categorized_16_3,DESTROYER,,
146,text-recall,,text-recall,35.0,984632.0,0.0-35.0,pilot,3,expAv3,debugj4qkf:debugNZEBh,False,"['PAPER', 'TRACTOR', 'ANTELOPE', 'ROOF', 'ELK', 'CEILING', 'BASEMENT']","['PAPER', 'TRACTOR', 'ANTELOPE', 'ROOF', 'ELK', 'CEILING', 'BASEMENT']","['BUFFALO', 'REPORT', 'WAGON', 'ESSAY', 'MOOSE', 'MOTORCYCLE', 'JOURNAL', 'JET', 'ENTRANCE']","['TRACTOR', 'ANTELOPE', 'ELK', 'ROOF', 'BUFFALO', 'REPORT', 'WAGON', 'ESSAY', 'MOOSE', 'MOTORCYCLE', 'JOURNAL', 'JET', 'CEILING', 'BASEMENT', 'ENTRANCE', 'PAPER']",7.0,False,"[1966, 2009, 2138, 1852, 1033, 1410, 5200]",True,54959.0,categorized_16_4,,,
147,reminder,,reminder,36.0,1024322.0,0.0-36.0,pilot,3,expAv3,debugj4qkf:debugNZEBh,False,[],[],"['BUFFALO', 'REPORT', 'WAGON', 'ESSAY', 'MOTORCYCLE', 'JOURNAL', 'JET', 'ENTRANCE']","['TRACTOR', 'ANTELOPE', 'ELK', 'ROOF', 'BUFFALO', 'REPORT', 'WAGON', 'ESSAY', 'MOOSE', 'MOTORCYCLE', 'JOURNAL', 'JET', 'CEILING', 'BASEMENT', 'ENTRANCE', 'PAPER']",0.0,False,[],,,categorized_16_4,MOOSE,,
148,text-recall,,text-recall,39.0,1145001.0,0.0-39.0,pilot,3,expAv3,debugj4qkf:debugNZEBh,False,"['TURTLE', 'BOWLING', 'LACROSSE', 'GOLF', 'BOLLETIN', 'WOLF', 'RAT', 'NOTE', 'EDITORIAL', 'TROLLEY']","['TURTLE', 'BOWLING', 'LACROSSE', 'GOLF', 'BULLETIN', 'WOLF', 'RAT', 'NOTE', 'EDITORIAL', 'TROLLEY']","['FOX', 'BOXING', 'HELICOPTER', 'NOVEL', 'TRAILER', 'JEEP']","['BULLETIN', 'GOLF', 'LACROSSE', 'FOX', 'BOXING', 'WOLF', 'TROLLEY', 'HELICOPTER', 'EDITORIAL', 'RAT', 'NOVEL', 'NOTE', 'TRAILER', 'JEEP', 'BOWLING', 'TURTLE']",10.0,False,"[3159, 2458, 2285, 1669, 2099, 2211, 1058, 1175, 6081, 4433]",True,50936.0,categorized_16_7,,,
149,reminder,,reminder,40.0,1188548.0,0.0-40.0,pilot,3,expAv3,debugj4qkf:debugNZEBh,False,['TURTLE'],[],"['FOX', 'BOXING', 'NOVEL', 'TRAILER', 'JEEP']","['BULLETIN', 'GOLF', 'LACROSSE', 'FOX', 'BOXING', 'WOLF', 'TROLLEY', 'HELICOPTER', 'EDITORIAL', 'RAT', 'NOVEL', 'NOTE', 'TRAILER', 'JEEP', 'BOWLING', 'TURTLE']",0.0,False,[8023],,,categorized_16_7,HELICOPTER,,
150,text-recall,,text-recall,43.0,1364322.0,0.0-43.0,pilot,3,expAv3,debugj4qkf:debugNZEBh,False,"['SNOW', 'WORM', 'FIR', 'EARTHQUAKE', 'FOUNDATION', 'CELLAR', 'BEETLE', 'FOG']","['SNOW', 'WORM', 'FIR', 'EARTHQUAKE', 'FOUNDATION', 'CELLAR', 'BEETLE', 'FOG']","['PORCH', 'BEECH', 'MOSQUITO', 'HORNET', 'KITCHEN', 'CEDAR', 'ELM', 'FROST']","['SNOW', 'WORM', 'EARTHQUAKE', 'PORCH', 'FOUNDATION', 'BEECH', 'MOSQUITO', 'BEETLE', 'CELLAR', 'FIR', 'HORNET', 'KITCHEN', 'CEDAR', 'ELM', 'FROST', 'FOG']",8.0,False,"[2099, 3489, 1544, 4283, 2396, 12011, 14830, 24150]",False,67639.0,categorized_16_8,,,
151,reminder,,reminder,44.0,1391736.0,0.0-44.0,pilot,3,expAv3,debugj4qkf:debugNZEBh,False,[],[],"['PORCH', 'BEECH', 'MOSQUITO', 'HORNET', 'CEDAR', 'ELM', 'FROST']","['SNOW', 'WORM', 'EARTHQUAKE', 'PORCH', 'FOUNDATION', 'BEECH', 'MOSQUITO', 'BEETLE', 'CELLAR', 'FIR', 'HORNET', 'KITCHEN', 'CEDAR', 'ELM', 'FROST', 'FOG']",0.0,False,[],,,categorized_16_8,KITCHEN,,
152,text-recall,,text-recall,47.0,1544347.0,0.0-47.0,pilot,3,expAv3,debugj4qkf:debugNZEBh,False,"['MANSION', 'BUNGALOW', 'BIRCH', 'OTTAMON', 'CABINET']","['MANSION', 'BUNGALOW', 'BIRCH', 'OTTOMAN', 'CABINET']","['DORMITORY', 'CLOSET', 'LAMP', 'BUREAU', 'MAPLE', 'WING', 'POPLAR', 'LOBBY', 'ATTIC', 'EVERGREEN', 'PALACE']","['OTTOMAN', 'DORMITORY', 'CLOSET', 'LAMP', 'BUREAU', 'MAPLE', 'WING', 'POPLAR', 'LOBBY', 'ATTIC', 'EVERGREEN', 'BIRCH', 'MANSION', 'PALACE', 'BUNGALOW', 'CABINET']",5.0,False,"[2433, 3413, 4033, 9362, 5363]",True,90000.0,categorized_16_6,,,
153,reminder,,reminder,48.0,1545350.0,0.0-48.0,pilot,3,expAv3,debugj4qkf:debugNZEBh,False,[],[],[],"['OTTOMAN', 'DORMITORY', 'CLOSET', 'LAMP', 'BUREAU', 'MAPLE', 'WING', 'POPLAR', 'LOBBY', 'ATTIC', 'EVERGREEN', 'BIRCH', 'MANSION', 'PALACE', 'BUNGALOW', 'CABINET']",0.0,False,[],,,categorized_16_6,,,
154,text-recall,,text-recall,51.0,1696859.0,0.0-51.0,pilot,3,expAv3,debugj4qkf:debugNZEBh,False,"['VULTURE', 'FISHING', 'FELT', 'WRESTLING', 'SWAN']","['VULTURE', 'FISHING', 'FELT', 'WRESTLING', 'SWAN']","['BLUES', 'SYMPHONY', 'LINEN', 'INSTRUMENTAL', 'CANARY', 'CLOTH', 'GYMNASTICS', 'VELVET', 'SWIMMING', 'DUCK', 'SOUL']","['SWAN', 'BLUES', 'SYMPHONY', 'LINEN', 'INSTRUMENTAL', 'CANARY', 'CLOTH', 'GYMNASTICS', 'VELVET', 'SWIMMING', 'WRESTLING', 'DUCK', 'FELT', 'SOUL', 'FISHING', 'VULTURE']",5.0,False,"[2562, 2136, 1371, 4665, 5976]",True,90000.0,categorized_16_5,,,
155,reminder,,reminder,52.0,1697862.0,0.0-52.0,pilot,3,expAv3,debugj4qkf:debugNZEBh,False,[],[],[],"['SWAN', 'BLUES', 'SYMPHONY', 'LINEN', 'INSTRUMENTAL', 'CANARY', 'CLOTH', 'GYMNASTICS', 'VELVET', 'SWIMMING', 'WRESTLING', 'DUCK', 'FELT', 'SOUL', 'FISHING', 'VULTURE']",0.0,False,[],,,categorized_16_5,,,
156,text-recall,,text-recall,55.0,1880182.0,0.0-55.0,pilot,3,expAv3,debugj4qkf:debugNZEBh,False,"['CLARINET', 'HARP', 'FIG', 'STRAWBERRY', 'CHICKEN', 'PENGUIN', 'NUCLEAR']","['CLARINET', 'HARP', 'FIG', 'STRAWBERRY', 'CHICKEN', 'PENGUIN', 'NUCLEAR']","['OIL', 'FIDDLE', 'PIGEON', 'CROW', 'BANJO', 'STEAM', 'MANGO', 'GRAPE', 'WATER']","['OIL', 'STRAWBERRY', 'PENGUIN', 'FIDDLE', 'PIGEON', 'CROW', 'CHICKEN', 'BANJO', 'STEAM', 'MANGO', 'NUCLEAR', 'FIG', 'GRAPE', 'WATER', 'HARP', 'CLARINET']",7.0,False,"[2400, 2273, 1056, 4978, 5225, 1877, 4724]",True,90000.0,categorized_16_0,,,
157,reminder,,reminder,56.0,1881186.0,0.0-56.0,pilot,3,expAv3,debugj4qkf:debugNZEBh,False,[],[],[],"['OIL', 'STRAWBERRY', 'PENGUIN', 'FIDDLE', 'PIGEON', 'CROW', 'CHICKEN', 'BANJO', 'STEAM', 'MANGO', 'NUCLEAR', 'FIG', 'GRAPE', 'WATER', 'HARP', 'CLARINET']",0.0,False,[],,,categorized_16_0,,,
158,text-recall,,text-recall,59.0,2027569.0,0.0-59.0,pilot,3,expAv3,debugj4qkf:debugNZEBh,False,"['WALTZ', 'CYCLONE', 'BALLET', 'MOONSON', 'PENCIL', 'WALTZ']","['WALTZ', 'CYCLONE', 'BALLET', 'PENCIL']","['TAN', 'MONSOON', 'SCARLET', 'GRAY', 'TYPHOON', 'SALSA', 'RULER', 'CRIMSON', 'BOLT', 'THUNDER', 'SWING', 'LEVEL']","['CYCLONE', 'TAN', 'PENCIL', 'BALLET', 'MONSOON', 'SCARLET', 'GRAY', 'TYPHOON', 'SALSA', 'RULER', 'CRIMSON', 'BOLT', 'THUNDER', 'SWING', 'LEVEL', 'WALTZ']",4.0,False,"[2583, 2813, 1673, 2693, 3590, 3464]",True,90000.0,categorized_16_1,,,
159,reminder,,reminder,60.0,2028573.0,0.0-60.0,pilot,3,expAv3,debugj4qkf:debugNZEBh,False,[],[],[],"['CYCLONE', 'TAN', 'PENCIL', 'BALLET', 'MONSOON', 'SCARLET', 'GRAY', 'TYPHOON', 'SALSA', 'RULER', 'CRIMSON', 'BOLT', 'THUNDER', 'SWING', 'LEVEL', 'WALTZ']",0.0,False,[],,,categorized_16_1,,,
160,text-recall,,text-recall,63.0,2176138.0,0.0-63.0,pilot,3,expAv3,debugj4qkf:debugNZEBh,False,"['BOXERS', 'WIND', 'BANDMINTON', 'SOFTBALL', 'MOUSE', 'SKIRT']","['BOXERS', 'WIND', 'BADMINTON', 'SOFTBALL', 'MOUSE', 'SKIRT']","['SQUIRREL', 'DROUGHT', 'FENCING', 'HAIL', 'JEANS', 'SUNSHINE', 'RUGBY', 'TIGER', 'JACKET', 'BEAR']","['SQUIRREL', 'DROUGHT', 'SKIRT', 'FENCING', 'HAIL', 'JEANS', 'MOUSE', 'SUNSHINE', 'RUGBY', 'TIGER', 'JACKET', 'BADMINTON', 'BEAR', 'SOFTBALL', 'WIND', 'BOXERS']",6.0,False,"[2692, 1062, 2210, 2591, 3479, 33884]",True,90000.0,categorized_16_9,,,
161,reminder,,reminder,64.0,2177143.0,0.0-64.0,pilot,3,expAv3,debugj4qkf:debugNZEBh,False,[],[],[],"['SQUIRREL', 'DROUGHT', 'SKIRT', 'FENCING', 'HAIL', 'JEANS', 'MOUSE', 'SUNSHINE', 'RUGBY', 'TIGER', 'JACKET', 'BADMINTON', 'BEAR', 'SOFTBALL', 'WIND', 'BOXERS']",0.0,False,[],,,categorized_16_9,,,
162,survey-text,"{""Q0"":""""}",survey-text,67.0,2189987.0,0.0-67.0,pilot,3,expAv3,debugj4qkf:debugNZEBh,,,,,,,,,,,,,,
163,total-points,,,,,,,,,debugj4qkf:debugNZEBh,,,,,,,,,,,,,debugj4qkf:debugNZEBh,60.0
164,survey-text,"{""Q0"":""cond1""}",survey-text,2.0,4511.0,0.0-2.0,pilot,1,expAv3,debugIWX69S:debugVQ09ZH,,,,,,,,,,,,,,
165,total-points,,,,,,,,,debugIWX69S:debugVQ09ZH,,,,,,,,,,,,,debugIWX69S:debugVQ09ZH,0.0
166,survey-text,"{""Q0"":""cond2""}",survey-text,2.0,11315.0,0.0-2.0,pilot,2,expAv3,debugUL5V2K:debug5GZ1LX,,,,,,,,,,,,,,
167,total-points,,,,,,,,,debugUL5V2K:debug5GZ1LX,,,,,,,,,,,,,debugUL5V2K:debug5GZ1LX,0.0
168,survey-text,"{""Q0"":""5def67a45c91a4000ef4739c""}",survey-text,0.0,16269.0,0.0-0.0,pilot,6,expAv3,debugwFWnd:debugS66Hy,,,,,,,,,,,,,,
169,text-recall,,text-recall,32.0,803097.0,0.0-27.0,pilot,6,expAv3,debugwFWnd:debugS66Hy,False,"['MOSQUITO', 'SALSA', 'AXE', 'DRILL', 'LEVEL', 'ROBE', 'SUIT', 'SLIP', 'RULER', 'BALLET', 'TROUSERS', 'BETTERFLY', 'TANGO']","['MOSQUITO', 'SALSA', 'AXE', 'DRILL', 'LEVEL', 'ROBE', 'SUIT', 'SLIP', 'RULER', 'BALLET', 'TROUSERS', 'BUTTERFLY', 'TANGO']","['BEETLE', 'BALLROOM', 'HORNET']","['SALSA', 'AXE', 'DRILL', 'BEETLE', 'LEVEL', 'ROBE', 'BALLROOM', 'SLIP', 'HORNET', 'SUIT', 'RULER', 'BALLET', 'TROUSERS', 'BUTTERFLY', 'TANGO', 'MOSQUITO']",13.0,False,"[13661, 4597, 2008, 3738, 4799, 3636, 2743, 3792, 8181, 3566, 3069, 2946, 4405]",False,90000.0,categorized_16_0,,,
170,reminder,,reminder,33.0,804110.0,0.0-28.0,pilot,6,expAv3,debugwFWnd:debugS66Hy,False,[],[],[],"['SALSA', 'AXE', 'DRILL', 'BEETLE', 'LEVEL', 'ROBE', 'BALLROOM', 'SLIP', 'HORNET', 'SUIT', 'RULER', 'BALLET', 'TROUSERS', 'BUTTERFLY', 'TANGO', 'MOSQUITO']",0.0,False,[],,,categorized_16_0,,,
171,text-recall,,text-recall,36.0,958928.0,0.0-31.0,pilot,6,expAv3,debugwFWnd:debugS66Hy,False,"['FIG', 'PAPER', 'GRAPE', 'STRAWBERRY', 'DESERT', 'BEECH', 'CANYON', 'RAVINE', 'ELM', 'ENCYCLOPEDIA', 'CHERRY', 'NOVEL', 'LETTER']","['FIG', 'PAPER', 'GRAPE', 'STRAWBERRY', 'DESERT', 'BEECH', 'CANYON', 'RAVINE', 'ELM', 'ENCYCLOPEDIA', 'CHERRY', 'NOVEL', 'LETTER']","['FIR', 'BIRCH', 'GLACIER']","['PAPER', 'GRAPE', 'FIR', 'DESERT', 'STRAWBERRY', 'BIRCH', 'CANYON', 'RAVINE', 'ELM', 'ENCYCLOPEDIA', 'CHERRY', 'GLACIER', 'BEECH', 'NOVEL', 'LETTER', 'FIG']",13.0,False,"[15745, 7662, 2516, 7030, 2032, 4644, 1878, 2209, 2155, 9088, 2236, 4224, 4349]",True,90000.0,categorized_16_4,,,
172,reminder,,reminder,37.0,959943.0,0.0-32.0,pilot,6,expAv3,debugwFWnd:debugS66Hy,False,[],[],[],"['PAPER', 'GRAPE', 'FIR', 'DESERT', 'STRAWBERRY', 'BIRCH', 'CANYON', 'RAVINE', 'ELM', 'ENCYCLOPEDIA', 'CHERRY', 'GLACIER', 'BEECH', 'NOVEL', 'LETTER', 'FIG']",0.0,False,[],,,categorized_16_4,,,
173,text-recall,,text-recall,40.0,1106782.0,0.0-35.0,pilot,6,expAv3,debugwFWnd:debugS66Hy,False,"['SOIL', 'MOUSE', 'DRESS', 'COW', 'COAT', 'BELT', 'TECHNO', 'BLUES', 'POP', 'CLIPPERS', 'PICHFORK', 'SEEDS', 'INSTRUMENTAL', 'TURTLE', 'BEAR', 'SOIL']","['SOIL', 'MOUSE', 'DRESS', 'COW', 'COAT', 'BELT', 'TECHNO', 'BLUES', 'POP', 'CLIPPERS', 'PITCHFORK', 'SEEDS', 'INSTRUMENTAL', 'TURTLE', 'BEAR']",['JACKET'],"['MOUSE', 'DRESS', 'COW', 'COAT', 'BELT', 'TECHNO', 'BLUES', 'CLIPPERS', 'POP', 'PITCHFORK', 'SEEDS', 'INSTRUMENTAL', 'JACKET', 'TURTLE', 'BEAR', 'SOIL']",15.0,False,"[12907, 4729, 1761, 1828, 4300, 1867, 3890, 2813, 1309, 2011, 7023, 1869, 4728, 5092, 2062, 3096]",True,90000.0,categorized_16_2,,,
174,reminder,,reminder,41.0,1107790.0,0.0-36.0,pilot,6,expAv3,debugwFWnd:debugS66Hy,True,[],[],[],"['MOUSE', 'DRESS', 'COW', 'COAT', 'BELT', 'TECHNO', 'BLUES', 'CLIPPERS', 'POP', 'PITCHFORK', 'SEEDS', 'INSTRUMENTAL', 'JACKET', 'TURTLE', 'BEAR', 'SOIL']",0.0,False,[],,,categorized_16_2,,,
175,text-recall,,text-recall,44.0,1261504.0,0.0-39.0,pilot,6,expAv3,debugwFWnd:debugS66Hy,False,"['BALL', 'MAPLE', 'CLIFF', 'CEDAR', 'PUZZLE', 'POPLAR', 'KITE', 'SHORTS', 'SEA', 'JEANS', 'BOXERS', 'BLOCKS', 'ISLAND', 'SKIRT', 'EUCALYPTUS']","['BALL', 'MAPLE', 'CLIFF', 'CEDAR', 'PUZZLE', 'POPLAR', 'KITE', 'SHORTS', 'SEA', 'JEANS', 'BOXERS', 'BLOCKS', 'ISLAND', 'SKIRT', 'EUCALYPTUS']",['PLATEAU'],"['BALL', 'MAPLE', 'CLIFF', 'CEDAR', 'PUZZLE', 'POPLAR', 'KITE', 'SHORTS', 'SEA', 'JEANS', 'BOXERS', 'BLOCKS', 'ISLAND', 'SKIRT', 'EUCALYPTUS', 'PLATEAU']",15.0,False,"[10891, 3160, 2831, 4751, 1800, 4629, 2169, 2032, 2439, 3176, 3856, 2258, 3828, 2889, 5396]",True,90000.0,categorized_16_6,,,
176,reminder,,reminder,45.0,1262513.0,0.0-40.0,pilot,6,expAv3,debugwFWnd:debugS66Hy,True,[],[],[],"['BALL', 'MAPLE', 'CLIFF', 'CEDAR', 'PUZZLE', 'POPLAR', 'KITE', 'SHORTS', 'SEA', 'JEANS', 'BOXERS', 'BLOCKS', 'ISLAND', 'SKIRT', 'EUCALYPTUS', 'PLATEAU']",0.0,False,[],,,categorized_16_6,,,
177,text-recall,,text-recall,48.0,1409770.0,0.0-43.0,pilot,6,expAv3,debugwFWnd:debugS66Hy,False,"['DORMITORY', 'STEAMBOAT', 'BEASEMENT', 'FERRY', 'MANSION', 'HOTEL', 'CELLAR', 'HUT', 'CEILING', 'DEER', 'RABIT', 'FOX', 'ELEVATOR', 'WOF']","['DORMITORY', 'STEAMBOAT', 'FERRY', 'MANSION', 'HOTEL', 'CELLAR', 'HUT', 'CEILING', 'DEER', 'FOX', 'ELEVATOR']","['BASEMENT', 'SCHOONER', 'RABBIT', 'BARGE', 'WOLF']","['BASEMENT', 'FERRY', 'SCHOONER', 'MANSION', 'HOTEL', 'CELLAR', 'HUT', 'CEILING', 'DEER', 'RABBIT', 'FOX', 'BARGE', 'ELEVATOR', 'WOLF', 'STEAMBOAT', 'DORMITORY']",11.0,False,"[14099, 4701, 7724, 1591, 6284, 2249, 3643, 2276, 3545, 2446, 3212, 1821, 8616, 1607]",True,90000.0,categorized_16_3,,,
178,reminder,,reminder,49.0,1410778.0,0.0-44.0,pilot,6,expAv3,debugwFWnd:debugS66Hy,False,[],[],[],"['BASEMENT', 'FERRY', 'SCHOONER', 'MANSION', 'HOTEL', 'CELLAR', 'HUT', 'CEILING', 'DEER', 'RABBIT', 'FOX', 'BARGE', 'ELEVATOR', 'WOLF', 'STEAMBOAT', 'DORMITORY']",0.0,False,[],,,categorized_16_3,,,
179,text-recall,,text-recall,52.0,1557327.0,0.0-47.0,pilot,6,expAv3,debugwFWnd:debugS66Hy,False,"['KART', 'TRATOR', 'OTTOMAN', 'OWL', 'PARROT', 'BICYCLE', 'SAILING', 'SKIING', 'DESK', 'LAMP', 'DUCK', 'JET', 'GOLF', 'CHICKEN']","['OTTOMAN', 'OWL', 'PARROT', 'BICYCLE', 'SAILING', 'SKIING', 'DESK', 'LAMP', 'DUCK', 'JET', 'GOLF', 'CHICKEN']","['CART', 'TRACTOR', 'BUREAU', 'FENCING']","['CART', 'TRACTOR', 'OTTOMAN', 'BUREAU', 'BICYCLE', 'OWL', 'PARROT', 'SAILING', 'DESK', 'SKIING', 'FENCING', 'LAMP', 'DUCK', 'JET', 'GOLF', 'CHICKEN']",12.0,False,"[25181, 2381, 3479, 8772, 1856, 3855, 3617, 2835, 1511, 4183, 1511, 3304, 2916, 5349]",True,90000.0,categorized_16_7,,,
180,reminder,,reminder,53.0,1558335.0,0.0-48.0,pilot,6,expAv3,debugwFWnd:debugS66Hy,False,[],[],[],"['CART', 'TRACTOR', 'OTTOMAN', 'BUREAU', 'BICYCLE', 'OWL', 'PARROT', 'SAILING', 'DESK', 'SKIING', 'FENCING', 'LAMP', 'DUCK', 'JET', 'GOLF', 'CHICKEN']",0.0,False,[],,,categorized_16_7,,,
181,text-recall,,text-recall,56.0,1709182.0,0.0-51.0,pilot,6,expAv3,debugwFWnd:debugS66Hy,False,"['TYPHOON', 'WATERFALL', 'STEAM', 'SNOW', 'LACE', 'ELETICITY', 'SOLAR', 'OIL', 'PLAIN', 'DROGHOUT', 'LETHER', 'HAIL', 'FELT', 'TYPHOON']","['TYPHOON', 'WATERFALL', 'STEAM', 'SNOW', 'LACE', 'ELECTRICITY', 'SOLAR', 'OIL', 'PLAIN', 'HAIL', 'FELT']","['RIDGE', 'DROUGHT', 'LEATHER', 'GORGE', 'RAYON']","['WATERFALL', 'STEAM', 'RIDGE', 'SNOW', 'LACE', 'ELECTRICITY', 'SOLAR', 'OIL', 'PLAIN', 'DROUGHT', 'LEATHER', 'GORGE', 'HAIL', 'FELT', 'RAYON', 'TYPHOON']",11.0,False,"[6499, 6251, 2426, 5558, 3390, 4701, 1492, 2931, 2864, 7934, 1721, 3283, 2068, 8120]",True,90000.0,categorized_16_1,,,
182,reminder,,reminder,57.0,1710190.0,0.0-52.0,pilot,6,expAv3,debugwFWnd:debugS66Hy,False,[],[],[],"['WATERFALL', 'STEAM', 'RIDGE', 'SNOW', 'LACE', 'ELECTRICITY', 'SOLAR', 'OIL', 'PLAIN', 'DROUGHT', 'LEATHER', 'GORGE', 'HAIL', 'FELT', 'RAYON', 'TYPHOON']",0.0,False,[],,,categorized_16_1,,,
183,text-recall,,text-recall,60.0,1859290.0,0.0-55.0,pilot,6,expAv3,debugwFWnd:debugS66Hy,False,"['FAULT', 'SWIMING', 'GRAY', 'SAGE', 'SUGAR', 'BOWLING', 'BOXING', 'VANILLA', 'SOFTBALL', 'SCARLET', 'VALLEY', 'TAN', 'LAKE', 'CAVE']","['FAULT', 'SWIMMING', 'GRAY', 'SAGE', 'SUGAR', 'BOWLING', 'BOXING', 'VANILLA', 'SOFTBALL', 'SCARLET', 'VALLEY', 'TAN', 'LAKE', 'CAVE']","['GINGER', 'CRIMSON']","['SWIMMING', 'GRAY', 'SAGE', 'SUGAR', 'BOWLING', 'BOXING', 'VANILLA', 'SOFTBALL', 'SCARLET', 'VALLEY', 'GINGER', 'CRIMSON', 'TAN', 'LAKE', 'CAVE', 'FAULT']",14.0,False,"[6468, 8930, 3346, 1324, 3519, 3900, 2483, 2678, 5167, 2833, 2698, 5330, 7439, 3092]",True,90000.0,categorized_16_8,,,
184,reminder,,reminder,61.0,1860298.0,0.0-56.0,pilot,6,expAv3,debugwFWnd:debugS66Hy,False,[],[],[],"['SWIMMING', 'GRAY', 'SAGE', 'SUGAR', 'BOWLING', 'BOXING', 'VANILLA', 'SOFTBALL', 'SCARLET', 'VALLEY', 'GINGER', 'CRIMSON', 'TAN', 'LAKE', 'CAVE', 'FAULT']",0.0,False,[],,,categorized_16_8,,,
185,text-recall,,text-recall,64.0,2006226.0,0.0-59.0,pilot,6,expAv3,debugwFWnd:debugS66Hy,False,"['RIVER', 'VOLLEYBALL', 'RUGBY', 'HARP', 'FOLK', 'FIDLE', 'OCEAN', 'BANJO', 'POND', 'ALTERNATIVE', 'STREAM', 'GYMNASTICS']","['RIVER', 'VOLLEYBALL', 'RUGBY', 'HARP', 'FOLK', 'OCEAN', 'BANJO', 'POND', 'ALTERNATIVE', 'STREAM', 'GYMNASTICS']","['SYMPHONY', 'HARMONICA', 'FIDDLE', 'REGGAE', 'WRESTLING']","['RIVER', 'VOLLEYBALL', 'SYMPHONY', 'RUGBY', 'HARP', 'FOLK', 'HARMONICA', 'FIDDLE', 'OCEAN', 'REGGAE', 'BANJO', 'POND', 'ALTERNATIVE', 'WRESTLING', 'STREAM', 'GYMNASTICS']",11.0,False,"[8168, 5253, 7481, 1922, 2008, 6049, 1654, 4785, 6322, 2961, 3808, 4166]",True,90000.0,categorized_16_5,,,
186,reminder,,reminder,65.0,2007238.0,0.0-60.0,pilot,6,expAv3,debugwFWnd:debugS66Hy,False,[],[],[],"['RIVER', 'VOLLEYBALL', 'SYMPHONY', 'RUGBY', 'HARP', 'FOLK', 'HARMONICA', 'FIDDLE', 'OCEAN', 'REGGAE', 'BANJO', 'POND', 'ALTERNATIVE', 'WRESTLING', 'STREAM', 'GYMNASTICS']",0.0,False,[],,,categorized_16_5,,,
187,text-recall,,text-recall,68.0,2154088.0,0.0-63.0,pilot,6,expAv3,debugwFWnd:debugS66Hy,False,"['PUNK', 'FOUNDATION', 'SKA', 'KITCHEN', 'NOTE', 'LACROSSE', 'ENTRANCE', 'OPERA', 'BADMINTON', 'SOUL', 'ESSAY']","['PUNK', 'FOUNDATION', 'SKA', 'KITCHEN', 'NOTE', 'LACROSSE', 'ENTRANCE', 'OPERA', 'BADMINTON', 'SOUL', 'ESSAY']","['FISHING', 'DIGEST', 'BOOKLET', 'FLOOR', 'HANDBALL']","['SKA', 'FISHING', 'KITCHEN', 'NOTE', 'LACROSSE', 'ENTRANCE', 'DIGEST', 'OPERA', 'BADMINTON', 'SOUL', 'ESSAY', 'BOOKLET', 'FOUNDATION', 'FLOOR', 'HANDBALL', 'PUNK']",11.0,False,"[7460, 3488, 1438, 9400, 2305, 3642, 2547, 5600, 5140, 1274, 3311]",True,90000.0,categorized_16_9,,,
188,reminder,,reminder,69.0,2155099.0,0.0-64.0,pilot,6,expAv3,debugwFWnd:debugS66Hy,False,[],[],[],"['SKA', 'FISHING', 'KITCHEN', 'NOTE', 'LACROSSE', 'ENTRANCE', 'DIGEST', 'OPERA', 'BADMINTON', 'SOUL', 'ESSAY', 'BOOKLET', 'FOUNDATION', 'FLOOR', 'HANDBALL', 'PUNK']",0.0,False,[],,,categorized_16_9,,,
189,survey-text,"{""Q0"":""I had a bit of confusion about que q and p controls regarding the size comparison""}",survey-text,72.0,2208950.0,0.0-67.0,pilot,6,expAv3,debugwFWnd:debugS66Hy,,,,,,,,,,,,,,
190,total-points,,,,,,,,,debugwFWnd:debugS66Hy,,,,,,,,,,,,,debugwFWnd:debugS66Hy,119.0
191,survey-text,"{""Q0"":""61016ee674848ff10bb4c322""}",survey-text,0.0,3754.0,0.0-0.0,pilot,3,expAv3,debugiAn08:debugi0veX,,,,,,,,,,,,,,
192,text-recall,,text-recall,35.0,739711.0,0.0-27.0,pilot,3,expAv3,debugiAn08:debugi0veX,False,"['TRAILER', 'PLATEAU']","['TRAILER', 'PLATEAU']","['TAXI', 'BLOCKS', 'GORGE', 'KITE', 'STREETCAR', 'BALL', 'TROLLEY', 'FISHING', 'LAKE', 'STREAM', 'BOWLING', 'PUZZLE', 'SKIING', 'HANDBALL']","['TAXI', 'BLOCKS', 'GORGE', 'KITE', 'STREETCAR', 'BALL', 'PLATEAU', 'TROLLEY', 'FISHING', 'LAKE', 'STREAM', 'BOWLING', 'PUZZLE', 'SKIING', 'HANDBALL', 'TRAILER']",2.0,False,"[2613, 23113]",True,32795.0,categorized_16_6,,,
193,reminder,,reminder,36.0,800547.0,0.0-28.0,pilot,3,expAv3,debugiAn08:debugi0veX,False,"['HANDBALL', 'TAXI', 'CABIN']",['TAXI'],"['BLOCKS', 'GORGE', 'KITE', 'STREETCAR', 'BALL', 'TROLLEY', 'FISHING', 'LAKE', 'STREAM', 'BOWLING', 'PUZZLE', 'SKIING']","['TAXI', 'BLOCKS', 'GORGE', 'KITE', 'STREETCAR', 'BALL', 'PLATEAU', 'TROLLEY', 'FISHING', 'LAKE', 'STREAM', 'BOWLING', 'PUZZLE', 'SKIING', 'HANDBALL', 'TRAILER']",1.0,False,"[2594, 3739, 7331]",,,categorized_16_6,HANDBALL,,
194,text-recall,,text-recall,39.0,903245.0,0.0-31.0,pilot,3,expAv3,debugiAn08:debugi0veX,False,"['VANILLA', 'BASIL', 'SAGE']","['VANILLA', 'SAGE']","['TANKER', 'FOLK', 'PUNK', 'KITCHEN', 'WALLS', 'BATTLESHIP', 'BLUES', 'BASEMENT', 'GINGER', 'DESTROYER', 'WING', 'ALTERNATIVE', 'BARGE', 'SUGAR']","['TANKER', 'FOLK', 'PUNK', 'KITCHEN', 'WALLS', 'BATTLESHIP', 'BLUES', 'BASEMENT', 'VANILLA', 'GINGER', 'DESTROYER', 'WING', 'SAGE', 'ALTERNATIVE', 'BARGE', 'SUGAR']",2.0,False,"[3710, 34988, 1174]",True,41870.0,categorized_16_7,,,
195,reminder,,reminder,40.0,955050.0,0.0-32.0,pilot,3,expAv3,debugiAn08:debugi0veX,False,"['BASEMENT', 'DESTROYER']",['DESTROYER'],"['TANKER', 'FOLK', 'PUNK', 'KITCHEN', 'WALLS', 'BATTLESHIP', 'BLUES', 'GINGER', 'WING', 'ALTERNATIVE', 'BARGE', 'SUGAR']","['TANKER', 'FOLK', 'PUNK', 'KITCHEN', 'WALLS', 'BATTLESHIP', 'BLUES', 'BASEMENT', 'VANILLA', 'GINGER', 'DESTROYER', 'WING', 'SAGE', 'ALTERNATIVE', 'BARGE', 'SUGAR']",1.0,False,"[2158, 6269]",,,categorized_16_7,BASEMENT,,
196,text-recall,,text-recall,43.0,1095543.0,0.0-35.0,pilot,3,expAv3,debugiAn08:debugi0veX,False,"['JOURNAL', 'LETTER', 'GALE', 'ACCORDION', 'DIGEST', 'HARMONICA', 'MANSION', 'NOVEL', 'HARP', 'LIGHTNING', 'EARTHQUAKE']","['JOURNAL', 'LETTER', 'GALE', 'ACCORDION', 'DIGEST', 'HARMONICA', 'MANSION', 'NOVEL', 'HARP', 'LIGHTNING', 'EARTHQUAKE']","['DORMITORY', 'HOTEL', 'CLARINET', 'HAIL', 'BUNGALOW']","['DORMITORY', 'JOURNAL', 'LETTER', 'GALE', 'HOTEL', 'ACCORDION', 'DIGEST', 'HARMONICA', 'CLARINET', 'MANSION', 'HAIL', 'NOVEL', 'HARP', 'LIGHTNING', 'EARTHQUAKE', 'BUNGALOW']",11.0,False,"[8107, 9354, 8451, 10101, 2412, 3550, 4884, 5440, 3254, 4986, 2579]",True,68415.0,categorized_16_5,,,
197,reminder,,reminder,44.0,1120539.0,0.0-36.0,pilot,3,expAv3,debugiAn08:debugi0veX,False,[],[],"['DORMITORY', 'CLARINET', 'HAIL', 'BUNGALOW']","['DORMITORY', 'JOURNAL', 'LETTER', 'GALE', 'HOTEL', 'ACCORDION', 'DIGEST', 'HARMONICA', 'CLARINET', 'MANSION', 'HAIL', 'NOVEL', 'HARP', 'LIGHTNING', 'EARTHQUAKE', 'BUNGALOW']",0.0,False,[],,,categorized_16_5,HOTEL,,
198,text-recall,,text-recall,47.0,1197634.0,0.0-39.0,pilot,3,expAv3,debugiAn08:debugi0veX,False,"['BEETLE', 'EARTHQUAKE']",['BEETLE'],"['WORM', 'BOOKLET', 'HORNET', 'DESK', 'BUREAU', 'MANUSCRIPT', 'BULLETIN', 'CAMEL', 'MOSQUITO', 'TURTLE', 'LAMP', 'RAT', 'LIZARD', 'CABINET', 'PAPER']","['WORM', 'BOOKLET', 'HORNET', 'DESK', 'BUREAU', 'MANUSCRIPT', 'BULLETIN', 'CAMEL', 'MOSQUITO', 'TURTLE', 'LAMP', 'RAT', 'LIZARD', 'CABINET', 'BEETLE', 'PAPER']",1.0,False,"[4559, 5636]",True,13154.0,categorized_16_3,,,
199,reminder,,reminder,48.0,1279351.0,0.0-40.0,pilot,3,expAv3,debugiAn08:debugi0veX,False,"['MANUSCRIPT', 'CABINET', 'MANUSCRIPT', 'CATERPILLAR', 'LAMP', 'BEETLE']","['CABINET', 'LAMP']","['WORM', 'BOOKLET', 'HORNET', 'DESK', 'BUREAU', 'BULLETIN', 'CAMEL', 'MOSQUITO', 'TURTLE', 'RAT', 'LIZARD', 'PAPER']","['WORM', 'BOOKLET', 'HORNET', 'DESK', 'BUREAU', 'MANUSCRIPT', 'BULLETIN', 'CAMEL', 'MOSQUITO', 'TURTLE', 'LAMP', 'RAT', 'LIZARD', 'CABINET', 'BEETLE', 'PAPER']",2.0,False,"[2611, 4050, 5371, 2693, 2312, 3557]",,,categorized_16_3,MANUSCRIPT,,
200,text-recall,,text-recall,51.0,1352976.0,0.0-43.0,pilot,3,expAv3,debugiAn08:debugi0veX,False,"['LACROSSE', 'VOLLEYBALL', 'MONSOONE', 'RAIN']","['LACROSSE', 'VOLLEYBALL', 'MONSOON', 'RAIN']","['TECHNO', 'ROOF', 'LOBBY', 'RUGBY', 'ROOM', 'FENCING', 'CLOSET', 'POP', 'FOG', 'FROST', 'SOUL', 'OPERA']","['TECHNO', 'ROOF', 'LOBBY', 'RUGBY', 'ROOM', 'FENCING', 'CLOSET', 'POP', 'FOG', 'FROST', 'SOUL', 'MONSOON', 'RAIN', 'VOLLEYBALL', 'OPERA', 'LACROSSE']",4.0,False,"[2597, 3495, 2408, 1886]",True,16545.0,categorized_16_9,,,
201,reminder,,reminder,52.0,1430091.0,0.0-44.0,pilot,3,expAv3,debugiAn08:debugi0veX,False,"['OPERA', 'LOUNGE', 'WALL', 'OPERA', 'VOLLEYBALL']",[],"['TECHNO', 'ROOF', 'LOBBY', 'RUGBY', 'ROOM', 'FENCING', 'CLOSET', 'POP', 'FOG', 'FROST', 'SOUL']","['TECHNO', 'ROOF', 'LOBBY', 'RUGBY', 'ROOM', 'FENCING', 'CLOSET', 'POP', 'FOG', 'FROST', 'SOUL', 'MONSOON', 'RAIN', 'VOLLEYBALL', 'OPERA', 'LACROSSE']",0.0,False,"[1542, 3630, 1236, 17651, 4339]",,,categorized_16_9,OPERA,,
202,text-recall,,text-recall,55.0,1507908.0,0.0-47.0,pilot,3,expAv3,debugiAn08:debugi0veX,False,"['VIOLET', 'FALCON', 'TSUNAMI', 'FALCON']","['FALCON', 'TSUNAMI']","['BLIZZARD', 'RAYON', 'DUCK', 'CYCLONE', 'CROW', 'MOTORCYCLE', 'CARRIAGE', 'CLOTH', 'THUNDER', 'LEATHER', 'JEEP', 'SUBWAY', 'PARROT', 'VELVET']","['BLIZZARD', 'RAYON', 'DUCK', 'CYCLONE', 'CROW', 'MOTORCYCLE', 'TSUNAMI', 'CARRIAGE', 'CLOTH', 'THUNDER', 'LEATHER', 'JEEP', 'FALCON', 'SUBWAY', 'PARROT', 'VELVET']",2.0,False,"[4892, 1401, 2173, 8763]",True,19821.0,categorized_16_2,,,
203,reminder,,reminder,56.0,1581625.0,0.0-48.0,pilot,3,expAv3,debugiAn08:debugi0veX,False,"['THUNDER', 'MONSOON', 'LIGHTNING']",[],"['BLIZZARD', 'RAYON', 'DUCK', 'CYCLONE', 'CROW', 'MOTORCYCLE', 'CARRIAGE', 'CLOTH', 'LEATHER', 'JEEP', 'SUBWAY', 'PARROT', 'VELVET']","['BLIZZARD', 'RAYON', 'DUCK', 'CYCLONE', 'CROW', 'MOTORCYCLE', 'TSUNAMI', 'CARRIAGE', 'CLOTH', 'THUNDER', 'LEATHER', 'JEEP', 'FALCON', 'SUBWAY', 'PARROT', 'VELVET']",0.0,False,"[3598, 2267, 2264]",,,categorized_16_2,THUNDER,,
204,text-recall,,text-recall,59.0,1757251.0,0.0-51.0,pilot,3,expAv3,debugiAn08:debugi0veX,False,"['ENCYCLOPEDIA', 'BOAT', 'ATTIC']","['ENCYCLOPEDIA', 'BOAT', 'ATTIC']","['PENGUIN', 'ESSAY', 'CRANE', 'HELICOPTER', 'BICYCLE', 'ELEVATOR', 'EDITORIAL', 'CELLAR', 'VAN', 'PAMPHLET', 'DOVE', 'ENTRANCE', 'OWL']","['PENGUIN', 'ESSAY', 'CRANE', 'ATTIC', 'HELICOPTER', 'BICYCLE', 'ELEVATOR', 'EDITORIAL', 'CELLAR', 'VAN', 'PAMPHLET', 'DOVE', 'ENTRANCE', 'OWL', 'BOAT', 'ENCYCLOPEDIA']",3.0,False,"[4282, 1123, 35261]",True,42540.0,categorized_16_4,,,
205,reminder,,reminder,60.0,1808451.0,0.0-52.0,pilot,3,expAv3,debugiAn08:debugi0veX,False,"['CRANE', 'OWL']",['OWL'],"['PENGUIN', 'ESSAY', 'HELICOPTER', 'BICYCLE', 'ELEVATOR', 'EDITORIAL', 'CELLAR', 'VAN', 'PAMPHLET', 'DOVE', 'ENTRANCE']","['PENGUIN', 'ESSAY', 'CRANE', 'ATTIC', 'HELICOPTER', 'BICYCLE', 'ELEVATOR', 'EDITORIAL', 'CELLAR', 'VAN', 'PAMPHLET', 'DOVE', 'ENTRANCE', 'OWL', 'BOAT', 'ENCYCLOPEDIA']",1.0,False,"[1871, 1686]",,,categorized_16_4,CRANE,,
206,text-recall,,text-recall,63.0,2161443.0,0.0-55.0,pilot,3,expAv3,debugiAn08:debugi0veX,False,"['TRAIN', 'JET', 'BLIZZARD', 'SNOW']","['TRAIN', 'JET', 'SNOW']","['SWING', 'FLOOD', 'TANGO', 'WAGON', 'PENCIL', 'DROUGHT', 'DRILL', 'BALLET', 'LEVEL', 'SCREW', 'TYPHOON', 'CART', 'BALLROOM']","['SWING', 'FLOOD', 'TANGO', 'WAGON', 'PENCIL', 'DROUGHT', 'DRILL', 'SNOW', 'BALLET', 'LEVEL', 'SCREW', 'TYPHOON', 'CART', 'BALLROOM', 'JET', 'TRAIN']",3.0,False,"[5137, 1655, 5288, 1165]",True,20669.0,categorized_16_0,,,
207,reminder,,reminder,64.0,2234454.0,0.0-56.0,pilot,3,expAv3,debugiAn08:debugi0veX,False,"['TANGO', 'BALLET', '', 'BALLERINA']",['BALLET'],"['SWING', 'FLOOD', 'WAGON', 'PENCIL', 'DROUGHT', 'DRILL', 'LEVEL', 'SCREW', 'TYPHOON', 'CART', 'BALLROOM']","['SWING', 'FLOOD', 'TANGO', 'WAGON', 'PENCIL', 'DROUGHT', 'DRILL', 'SNOW', 'BALLET', 'LEVEL', 'SCREW', 'TYPHOON', 'CART', 'BALLROOM', 'JET', 'TRAIN']",1.0,False,"[1755, 1663, 111, 2502]",,,categorized_16_0,TANGO,,
208,text-recall,,text-recall,67.0,2305957.0,0.0-59.0,pilot,3,expAv3,debugiAn08:debugi0veX,False,"['SPARRO', 'SPARROW', 'STRAWBERRY', 'FIG', 'PLUM']","['SPARROW', 'STRAWBERRY', 'FIG', 'PLUM']","['INSTRUMENTAL', 'MANGO', 'PIGEON', 'VULTURE', 'ELECTRICITY', 'REGGAE', 'OIL', 'STEAM', 'SYMPHONY', 'SOLAR', 'GOSPEL', 'PEACOCK']","['INSTRUMENTAL', 'MANGO', 'PLUM', 'PIGEON', 'VULTURE', 'ELECTRICITY', 'REGGAE', 'OIL', 'STEAM', 'SYMPHONY', 'SOLAR', 'FIG', 'GOSPEL', 'PEACOCK', 'STRAWBERRY', 'SPARROW']",4.0,False,"[2489, 2889, 2894, 1079, 2345]",True,16585.0,categorized_16_8,,,
209,reminder,,reminder,68.0,2383141.0,0.0-60.0,pilot,3,expAv3,debugiAn08:debugi0veX,False,"['VULTURE', 'PIGEON']",['PIGEON'],"['INSTRUMENTAL', 'MANGO', 'ELECTRICITY', 'REGGAE', 'OIL', 'STEAM', 'SYMPHONY', 'SOLAR', 'GOSPEL', 'PEACOCK']","['INSTRUMENTAL', 'MANGO', 'PLUM', 'PIGEON', 'VULTURE', 'ELECTRICITY', 'REGGAE', 'OIL', 'STEAM', 'SYMPHONY', 'SOLAR', 'FIG', 'GOSPEL', 'PEACOCK', 'STRAWBERRY', 'SPARROW']",1.0,False,"[1771, 1992]",,,categorized_16_8,VULTURE,,
210,text-recall,,text-recall,71.0,2450520.0,0.0-63.0,pilot,3,expAv3,debugiAn08:debugi0veX,False,"['FOX', 'MAROON']","['FOX', 'MAROON']","['SEEDS', 'GRAY', 'HOSE', 'CATFISH', 'COD', 'ANTELOPE', 'ELEPHANT', 'PERCH', 'TAN', 'BUFFALO', 'INDIGO', 'HERRING', 'PITCHFORK', 'CLIPPERS']","['SEEDS', 'GRAY', 'HOSE', 'CATFISH', 'COD', 'ANTELOPE', 'ELEPHANT', 'PERCH', 'TAN', 'BUFFALO', 'INDIGO', 'HERRING', 'PITCHFORK', 'CLIPPERS', 'MAROON', 'FOX']",2.0,False,"[1877, 1755]",True,12362.0,categorized_16_1,,,
211,reminder,,reminder,72.0,2531815.0,0.0-64.0,pilot,3,expAv3,debugiAn08:debugi0veX,False,"['TAN', 'ELEPHANT', 'BUFFALO', 'BISON', 'FIG', 'MAROON']","['ELEPHANT', 'BUFFALO']","['SEEDS', 'GRAY', 'HOSE', 'CATFISH', 'COD', 'ANTELOPE', 'PERCH', 'INDIGO', 'HERRING', 'PITCHFORK', 'CLIPPERS']","['SEEDS', 'GRAY', 'HOSE', 'CATFISH', 'COD', 'ANTELOPE', 'ELEPHANT', 'PERCH', 'TAN', 'BUFFALO', 'INDIGO', 'HERRING', 'PITCHFORK', 'CLIPPERS', 'MAROON', 'FOX']",2.0,False,"[1657, 6027, 3254, 2010, 7705, 4583]",,,categorized_16_1,TAN,,
212,survey-text,"{""Q0"":""I think it's a little bit confusing at the beginning, it's also a lot to focus on to try and remember 20 words while also trying to figure out if it's bigger or smaller than something, by the end of the study I forgot what I was saying it was bigger or smaller than ""}",survey-text,75.0,2614726.0,0.0-67.0,pilot,3,expAv3,debugiAn08:debugi0veX,,,,,,,,,,,,,,
213,total-points,,,,,,,,,debugiAn08:debugi0veX,,,,,,,,,,,,,debugiAn08:debugi0veX,40.0
214,survey-text,"{""Q0"":""6164b61dfd9a3894cccab2a2""}",survey-text,0.0,4316.0,0.0-0.0,pilot,7,expAv3,debugNWnCj:debugCUaat,,,,,,,,,,,,,,
215,text-recall,,text-recall,25.0,513238.0,0.0-27.0,pilot,7,expAv3,debugNWnCj:debugCUaat,False,"['TIE', 'TROLLEY', 'TRACTOR', 'COW', 'JET', 'LAMP', 'SQUIRREL', 'HELICOPTER', 'DESK', 'CAMEL', 'BOXER', 'BOXERS']","['TIE', 'TROLLEY', 'TRACTOR', 'COW', 'JET', 'LAMP', 'SQUIRREL', 'HELICOPTER', 'DESK', 'CAMEL', 'BOXERS']","['CABINET', 'ANTELOPE', 'OTTOMAN', 'DRESS', 'COAT']","['CABINET', 'ANTELOPE', 'OTTOMAN', 'DRESS', 'COAT', 'TIE', 'TROLLEY', 'TRACTOR', 'COW', 'JET', 'LAMP', 'SQUIRREL', 'HELICOPTER', 'DESK', 'CAMEL', 'BOXERS']",11.0,False,"[6683, 1980, 2831, 1951, 4821, 1508, 4578, 2632, 1697, 2945, 3961, 1816]",True,39606.0,categorized_16_7,,,
216,reminder,,reminder,26.0,567374.0,0.0-28.0,pilot,7,expAv3,debugNWnCj:debugCUaat,False,"['DRESS', 'COAT', 'OTTOMAN']","['COAT', 'OTTOMAN']","['CABINET', 'ANTELOPE']","['CABINET', 'ANTELOPE', 'OTTOMAN', 'DRESS', 'COAT', 'TIE', 'TROLLEY', 'TRACTOR', 'COW', 'JET', 'LAMP', 'SQUIRREL', 'HELICOPTER', 'DESK', 'CAMEL', 'BOXERS']",2.0,False,"[1695, 7046, 1408]",,,categorized_16_7,DRESS,,
217,text-recall,,text-recall,29.0,685338.0,0.0-31.0,pilot,7,expAv3,debugNWnCj:debugCUaat,True,"['POND', 'SYMPHONY', 'REGGAE', 'ESSAY', 'DIGEST', 'NOTE', 'FOLK', 'TROUSERS', 'JEANS', 'ROBE', 'VOLCANO', 'SHORTS', 'GOSPEL', 'EDITORIAL', 'STREAM', 'LAKE']","['POND', 'SYMPHONY', 'REGGAE', 'ESSAY', 'DIGEST', 'NOTE', 'FOLK', 'TROUSERS', 'JEANS', 'ROBE', 'VOLCANO', 'SHORTS', 'GOSPEL', 'EDITORIAL', 'STREAM', 'LAKE']",[],"['POND', 'SYMPHONY', 'REGGAE', 'ESSAY', 'DIGEST', 'NOTE', 'FOLK', 'TROUSERS', 'JEANS', 'ROBE', 'VOLCANO', 'SHORTS', 'GOSPEL', 'EDITORIAL', 'STREAM', 'LAKE']",16.0,False,"[7535, 6140, 1293, 1498, 3095, 2539, 3521, 3230, 1069, 4159, 3916, 2215, 4870, 2587, 1533, 2060]",True,56386.0,categorized_16_4,,,
218,reminder,,reminder,30.0,686342.0,0.0-32.0,pilot,7,expAv3,debugNWnCj:debugCUaat,True,[],[],[],"['POND', 'SYMPHONY', 'REGGAE', 'ESSAY', 'DIGEST', 'NOTE', 'FOLK', 'TROUSERS', 'JEANS', 'ROBE', 'VOLCANO', 'SHORTS', 'GOSPEL', 'EDITORIAL', 'STREAM', 'LAKE']",0.0,False,[],,,categorized_16_4,,,
219,text-recall,,text-recall,33.0,804882.0,0.0-35.0,pilot,7,expAv3,debugNWnCj:debugCUaat,False,"['RAYON', 'DESTROYER', 'VANILLA', 'GINGER', 'CLOTH', 'SCHOONER', 'GYMNASTICS', 'LACE', 'VOLLEYBALL', 'SWIMMING', 'BATTLESHIP', 'SAGE', 'SELLING', 'SUGAR', 'CEILING', 'LININ', 'LINEN', 'TANKER']","['RAYON', 'DESTROYER', 'VANILLA', 'GINGER', 'CLOTH', 'SCHOONER', 'GYMNASTICS', 'LACE', 'VOLLEYBALL', 'SWIMMING', 'BATTLESHIP', 'SAGE', 'SUGAR', 'LINEN', 'TANKER']",['SAILING'],"['RAYON', 'DESTROYER', 'VANILLA', 'GINGER', 'CLOTH', 'SCHOONER', 'GYMNASTICS', 'LACE', 'VOLLEYBALL', 'SWIMMING', 'BATTLESHIP', 'SAGE', 'SAILING', 'SUGAR', 'LINEN', 'TANKER']",15.0,False,"[7756, 3861, 2751, 1940, 2951, 4114, 3159, 1901, 3588, 2566, 3821, 2250, 3780, 1841, 2413, 990, 1811, 1419]",True,56806.0,categorized_16_5,,,
220,reminder,,reminder,34.0,805885.0,0.0-36.0,pilot,7,expAv3,debugNWnCj:debugCUaat,True,[],[],[],"['RAYON', 'DESTROYER', 'VANILLA', 'GINGER', 'CLOTH', 'SCHOONER', 'GYMNASTICS', 'LACE', 'VOLLEYBALL', 'SWIMMING', 'BATTLESHIP', 'SAGE', 'SAILING', 'SUGAR', 'LINEN', 'TANKER']",0.0,False,[],,,categorized_16_5,,,
221,text-recall,,text-recall,37.0,923979.0,0.0-39.0,pilot,7,expAv3,debugNWnCj:debugCUaat,True,"['ENTRANCE', 'DUCK', 'DOVE', 'TRAILOR', 'TRAILER', 'CHICKEN', 'ROOF', 'TRAIN', 'TAXI', 'SOFTBALL', 'TRACK', 'CARRIAGE', 'LOBBY', 'KITCHEN', 'VULTURE', 'HANDBALL', 'DIVING']","['ENTRANCE', 'DUCK', 'DOVE', 'TRAILER', 'CHICKEN', 'ROOF', 'TRAIN', 'TAXI', 'SOFTBALL', 'TRACK', 'CARRIAGE', 'LOBBY', 'KITCHEN', 'VULTURE', 'HANDBALL', 'DIVING']",[],"['ENTRANCE', 'DUCK', 'DOVE', 'TRAILER', 'CHICKEN', 'ROOF', 'TRAIN', 'TAXI', 'SOFTBALL', 'TRACK', 'CARRIAGE', 'LOBBY', 'KITCHEN', 'VULTURE', 'HANDBALL', 'DIVING']",16.0,False,"[7909, 1975, 2956, 4358, 2278, 1936, 537, 2910, 3126, 3383, 2483, 3990, 2339, 3253, 2812, 3725, 1946]",True,55588.0,categorized_16_9,,,
222,reminder,,reminder,38.0,924983.0,0.0-40.0,pilot,7,expAv3,debugNWnCj:debugCUaat,True,[],[],[],"['ENTRANCE', 'DUCK', 'DOVE', 'TRAILER', 'CHICKEN', 'ROOF', 'TRAIN', 'TAXI', 'SOFTBALL', 'TRACK', 'CARRIAGE', 'LOBBY', 'KITCHEN', 'VULTURE', 'HANDBALL', 'DIVING']",0.0,False,[],,,categorized_16_9,,,
223,text-recall,,text-recall,41.0,1039091.0,0.0-43.0,pilot,7,expAv3,debugNWnCj:debugCUaat,True,"['MANUSCRIPT', 'BOWLING', 'FENCING', 'BOXING', 'HAIL', 'PAMHLET', 'LETTER', 'SKA', 'BULLIETIN', 'TECHNO', 'LIGHTNING', 'BLUEGRASS', 'DROUGHT', 'RUGBY', 'MONSOON', 'OPERA']","['MANUSCRIPT', 'BOWLING', 'FENCING', 'BOXING', 'HAIL', 'PAMPHLET', 'LETTER', 'SKA', 'BULLETIN', 'TECHNO', 'LIGHTNING', 'BLUEGRASS', 'DROUGHT', 'RUGBY', 'MONSOON', 'OPERA']",[],"['MANUSCRIPT', 'BOWLING', 'FENCING', 'BOXING', 'HAIL', 'PAMPHLET', 'LETTER', 'SKA', 'BULLETIN', 'TECHNO', 'LIGHTNING', 'BLUEGRASS', 'DROUGHT', 'RUGBY', 'MONSOON', 'OPERA']",16.0,False,"[8098, 1547, 2190, 2960, 2911, 5333, 1180, 3183, 3482, 2378, 2926, 4025, 2030, 3119, 3030, 2643]",True,54237.0,categorized_16_8,,,
224,reminder,,reminder,42.0,1040096.0,0.0-44.0,pilot,7,expAv3,debugNWnCj:debugCUaat,True,[],[],[],"['MANUSCRIPT', 'BOWLING', 'FENCING', 'BOXING', 'HAIL', 'PAMPHLET', 'LETTER', 'SKA', 'BULLETIN', 'TECHNO', 'LIGHTNING', 'BLUEGRASS', 'DROUGHT', 'RUGBY', 'MONSOON', 'OPERA']",0.0,False,[],,,categorized_16_8,,,
