,type,responses,trial_type,trial_index,time_elapsed,internal_node_id,mode,subject_cond,exp,uniqueid,success,recalled_list,matching_list,missing_list,shown_list,num_correct,instructions,times,correct_sizes,used_time,list_type,reminder,display_time,id,total_points
0,survey-text,"{""Q0"":""63153455849b153d56dd81db""}",survey-text,0.0,19746.0,0.0-0.0,pilot,59,opt-rems-full,﻿debugqdmNN:debuguPdp3,,,,,,,,,,,,,,,
1,text-recall,,text-recall,36.0,1245272.0,0.0-27.0,pilot,59,opt-rems-full,debugqdmNN:debuguPdp3,False,"['GINGER', 'GOSPEL', 'FOLK', 'TRACTOR', 'STREETCAR', 'BOAT', 'BEETLE', 'WASP', 'ALTERNATIVE', 'MOSQUITO', 'SUGAR']","['GINGER', 'GOSPEL', 'FOLK', 'TRACTOR', 'STREETCAR', 'BOAT', 'BEETLE', 'WASP', 'ALTERNATIVE', 'MOSQUITO', 'SUGAR']","['INSTRUMENTAL', 'TAXI', 'SAGE', 'VANILLA', 'HORNET']","['INSTRUMENTAL', 'TAXI', 'SAGE', 'VANILLA', 'GINGER', 'HORNET', 'GOSPEL', 'SUGAR', 'FOLK', 'MOSQUITO', 'TRACTOR', 'ALTERNATIVE', 'STREETCAR', 'WASP', 'BOAT', 'BEETLE']",11.0,False,"[8419, 6008, 4105, 6847, 6560, 5928, 8919, 7338, 11903, 15311, 6728]",True,90000.0,categorized_16_6,,,,
2,reminder-none,,reminder,37.0,1246290.0,0.0-28.0,pilot,59,opt-rems-full,debugqdmNN:debuguPdp3,False,[],[],[],"['INSTRUMENTAL', 'TAXI', 'SAGE', 'VANILLA', 'GINGER', 'HORNET', 'GOSPEL', 'SUGAR', 'FOLK', 'MOSQUITO', 'TRACTOR', 'ALTERNATIVE', 'STREETCAR', 'WASP', 'BOAT', 'BEETLE']",0.0,False,[],,,categorized_16_6,,0.0,,
3,text-recall,,text-recall,40.0,1530235.0,0.0-31.0,pilot,59,opt-rems-full,debugqdmNN:debuguPdp3,False,"['SLOOP', 'RUGBY', 'DESTROYER', 'SHEEP', 'VOLLEYBALL', 'RAGGAE', 'REGGAE', 'FOX', 'TANKER', 'BLUEGRASS', 'WRESTLING', 'PIG']","['SLOOP', 'RUGBY', 'DESTROYER', 'SHEEP', 'VOLLEYBALL', 'REGGAE', 'FOX', 'TANKER', 'BLUEGRASS', 'WRESTLING', 'PIG']","['SKIING', 'BLUES', 'TECHNO', 'SCHOONER', 'LIZARD']","['SKIING', 'BLUES', 'TECHNO', 'SLOOP', 'RUGBY', 'DESTROYER', 'SHEEP', 'VOLLEYBALL', 'REGGAE', 'FOX', 'TANKER', 'BLUEGRASS', 'WRESTLING', 'PIG', 'SCHOONER', 'LIZARD']",11.0,False,"[9972, 5808, 7799, 5104, 8072, 8961, 7072, 5407, 4945, 6943, 5673, 3935]",True,83798.0,categorized_16_10,,,,
4,reminder-random,,reminder,41.0,1557016.0,0.0-32.0,pilot,59,opt-rems-full,debugqdmNN:debuguPdp3,False,"['SKIING', 'LIZARD']",['LIZARD'],"['BLUES', 'TECHNO', 'SCHOONER']","['SKIING', 'BLUES', 'TECHNO', 'SLOOP', 'RUGBY', 'DESTROYER', 'SHEEP', 'VOLLEYBALL', 'REGGAE', 'FOX', 'TANKER', 'BLUEGRASS', 'WRESTLING', 'PIG', 'SCHOONER', 'LIZARD']",1.0,False,"[4697, 5952]",,,categorized_16_10,SKIING,3000.0,,
5,text-recall,,text-recall,44.0,1761124.0,0.0-35.0,pilot,59,opt-rems-full,debugqdmNN:debuguPdp3,False,"['SHARK', 'SKIRT', 'TIE', 'SWING', 'COD', 'POPLAR']","['SHARK', 'SKIRT', 'TIE', 'SWING', 'COD', 'POPLAR']","['CARP', 'WILLOW', 'HERRING', 'BEECH', 'JEANS', 'SALSA', 'BALLROOM', 'WALTZ', 'HAT', 'BIRCH']","['SHARK', 'SKIRT', 'TIE', 'SWING', 'COD', 'POPLAR', 'CARP', 'WILLOW', 'HERRING', 'BEECH', 'JEANS', 'SALSA', 'BALLROOM', 'WALTZ', 'HAT', 'BIRCH']",6.0,False,"[10293, 7289, 4519, 6449, 4751, 6009]",True,44509.0,categorized_16_1,,,,
6,reminder-best,,reminder,45.0,1813334.0,0.0-36.0,pilot,59,opt-rems-full,debugqdmNN:debuguPdp3,False,"['BALLROOM', 'WILLOW', 'BEECH', 'BEECH', 'JEANS', 'SALSA']","['WILLOW', 'BEECH', 'JEANS', 'SALSA']","['CARP', 'HERRING', 'WALTZ', 'HAT', 'BIRCH']","['SHARK', 'SKIRT', 'TIE', 'SWING', 'COD', 'POPLAR', 'CARP', 'WILLOW', 'HERRING', 'BEECH', 'JEANS', 'SALSA', 'BALLROOM', 'WALTZ', 'HAT', 'BIRCH']",4.0,False,"[11931, 4335, 8568, 4088, 4960, 7617]",,,categorized_16_1,BALLROOM,3000.0,,
7,text-recall,,text-recall,48.0,2136858.0,0.0-39.0,pilot,59,opt-rems-full,debugqdmNN:debuguPdp3,False,"['HILL', 'VOLCANO', 'ISLAND', 'PARROT', 'FOUNDATION', 'ISLAND', 'PORCH', 'VULTURE', 'CEILING', 'ELK', 'ROOF']","['HILL', 'VOLCANO', 'ISLAND', 'PARROT', 'FOUNDATION', 'PORCH', 'VULTURE', 'CEILING', 'ELK', 'ROOF']","['DOVE', 'SPARROW', 'DONKEY', 'LAKE', 'COW', 'SQUIRREL']","['DOVE', 'SPARROW', 'DONKEY', 'LAKE', 'COW', 'SQUIRREL', 'ROOF', 'FOUNDATION', 'PARROT', 'PORCH', 'ISLAND', 'VOLCANO', 'VULTURE', 'HILL', 'CEILING', 'ELK']",10.0,False,"[10156, 6712, 6216, 6417, 7295, 11191, 6473, 7208, 5751, 3848, 10062]",True,90000.0,categorized_16_11,,,,
8,reminder-none,,reminder,49.0,2137883.0,0.0-40.0,pilot,59,opt-rems-full,debugqdmNN:debuguPdp3,False,[],[],[],"['DOVE', 'SPARROW', 'DONKEY', 'LAKE', 'COW', 'SQUIRREL', 'ROOF', 'FOUNDATION', 'PARROT', 'PORCH', 'ISLAND', 'VOLCANO', 'VULTURE', 'HILL', 'CEILING', 'ELK']",0.0,False,[],,,categorized_16_11,,0.0,,
9,text-recall,,text-recall,52.0,2529535.0,0.0-43.0,pilot,59,opt-rems-full,debugqdmNN:debuguPdp3,False,"['ENTRANCE', 'ANTELOPE', 'WOLF', 'BEAR', 'RABBIT', 'ATTIC', 'FALCON', 'PIGEON', 'BATTLESHIP', 'STEAMBOAT']","['ENTRANCE', 'ANTELOPE', 'WOLF', 'BEAR', 'RABBIT', 'ATTIC', 'FALCON', 'PIGEON', 'BATTLESHIP', 'STEAMBOAT']","['KITCHEN', 'FERRY', 'PEACOCK', 'BATHROOM', 'YACHT', 'PENGUIN']","['ENTRANCE', 'ANTELOPE', 'WOLF', 'BEAR', 'RABBIT', 'ATTIC', 'FALCON', 'PIGEON', 'BATTLESHIP', 'STEAMBOAT', 'KITCHEN', 'FERRY', 'PEACOCK', 'BATHROOM', 'YACHT', 'PENGUIN']",10.0,False,"[14673, 8272, 5720, 5145, 6383, 6705, 7600, 7064, 9488, 14086]",True,90000.0,categorized_16_9,,,,
10,reminder-none,,reminder,53.0,2530552.0,0.0-44.0,pilot,59,opt-rems-full,debugqdmNN:debuguPdp3,False,[],[],[],"['ENTRANCE', 'ANTELOPE', 'WOLF', 'BEAR', 'RABBIT', 'ATTIC', 'FALCON', 'PIGEON', 'BATTLESHIP', 'STEAMBOAT', 'KITCHEN', 'FERRY', 'PEACOCK', 'BATHROOM', 'YACHT', 'PENGUIN']",0.0,False,[],,,categorized_16_9,,0.0,,
11,text-recall,,text-recall,56.0,2924153.0,0.0-47.0,pilot,59,opt-rems-full,debugqdmNN:debuguPdp3,False,"['RAT', 'MANION', 'CLARINET', 'BUFFALO', 'MOUSE', 'KEYBOARD', 'HTEL', 'BOXERS', 'MOOSE', 'SLIP', 'HOTEL', 'BANJO', 'HUT', 'COAT']","['RAT', 'MANSION', 'CLARINET', 'BUFFALO', 'MOUSE', 'KEYBOARD', 'BOXERS', 'MOOSE', 'SLIP', 'HOTEL', 'BANJO', 'HUT', 'COAT']","['ROBE', 'DORMITORY', 'VIOLA']","['RAT', 'MANSION', 'CLARINET', 'BUFFALO', 'MOUSE', 'KEYBOARD', 'ROBE', 'SLIP', 'HOTEL', 'MOOSE', 'BOXERS', 'BANJO', 'HUT', 'COAT', 'DORMITORY', 'VIOLA']",13.0,False,"[10616, 6417, 6839, 7593, 4088, 7871, 7756, 5104, 3792, 4616, 2304, 6496, 3072, 6593]",True,90000.0,categorized_16_3,,,,
12,reminder-none,,reminder,57.0,2925177.0,0.0-48.0,pilot,59,opt-rems-full,debugqdmNN:debuguPdp3,False,[],[],[],"['RAT', 'MANSION', 'CLARINET', 'BUFFALO', 'MOUSE', 'KEYBOARD', 'ROBE', 'SLIP', 'HOTEL', 'MOOSE', 'BOXERS', 'BANJO', 'HUT', 'COAT', 'DORMITORY', 'VIOLA']",0.0,False,[],,,categorized_16_3,,0.0,,
13,text-recall,,text-recall,60.0,3441886.0,0.0-51.0,pilot,59,opt-rems-full,debugqdmNN:debuguPdp3,False,"['ELM', 'HARP', 'FIR', 'BULLETIN', 'EDITORIAL', 'EVERGREEN', 'HARMONICA', 'NOVEL', 'BOXING', 'ACCORDIAN', 'ACCORDION', 'MAPLE', 'HANDBALL', 'FIDDLE']","['ELM', 'HARP', 'FIR', 'BULLETIN', 'EDITORIAL', 'EVERGREEN', 'HARMONICA', 'NOVEL', 'BOXING', 'ACCORDION', 'MAPLE', 'HANDBALL', 'FIDDLE']","['BOWLING', 'SOFTBALL', 'JOURNAL']","['ELM', 'HARP', 'FIR', 'BULLETIN', 'EDITORIAL', 'EVERGREEN', 'HARMONICA', 'NOVEL', 'BOXING', 'ACCORDION', 'MAPLE', 'HANDBALL', 'FIDDLE', 'BOWLING', 'SOFTBALL', 'JOURNAL']",13.0,False,"[7047, 12040, 2591, 7072, 7105, 6823, 6601, 5192, 4904, 7015, 7553, 4039, 5010, 5006]",True,90000.0,categorized_16_2,,,,
14,reminder-none,,reminder,61.0,3442897.0,0.0-52.0,pilot,59,opt-rems-full,debugqdmNN:debuguPdp3,False,[],[],[],"['ELM', 'HARP', 'FIR', 'BULLETIN', 'EDITORIAL', 'EVERGREEN', 'HARMONICA', 'NOVEL', 'BOXING', 'ACCORDION', 'MAPLE', 'HANDBALL', 'FIDDLE', 'BOWLING', 'SOFTBALL', 'JOURNAL']",0.0,False,[],,,categorized_16_2,,0.0,,
15,text-recall,,text-recall,64.0,3841910.0,0.0-55.0,pilot,59,opt-rems-full,debugqdmNN:debuguPdp3,True,"['CANARY', 'BOLT', 'GLACIER', 'WATERFALL', 'SWAN', 'DEER', 'AXE', 'GOAT', 'TIGER', 'TURTLE', 'RULER', 'OWL', 'DRILL', 'OCEAN', 'DUCK', 'SEA']","['CANARY', 'BOLT', 'GLACIER', 'WATERFALL', 'SWAN', 'DEER', 'AXE', 'GOAT', 'TIGER', 'TURTLE', 'RULER', 'OWL', 'DRILL', 'OCEAN', 'DUCK', 'SEA']",[],"['CANARY', 'BOLT', 'GLACIER', 'WATERFALL', 'SWAN', 'DEER', 'AXE', 'GOAT', 'TIGER', 'TURTLE', 'RULER', 'OWL', 'DRILL', 'OCEAN', 'SEA', 'DUCK']",16.0,False,"[11468, 5953, 7119, 5369, 4271, 3665, 3344, 5192, 4647, 4456, 4961, 3175, 5537, 4271, 7033, 5320]",True,90000.0,categorized_16_5,,,,
16,reminder-none,,reminder,65.0,3842924.0,0.0-56.0,pilot,59,opt-rems-full,debugqdmNN:debuguPdp3,True,[],[],[],"['CANARY', 'BOLT', 'GLACIER', 'WATERFALL', 'SWAN', 'DEER', 'AXE', 'GOAT', 'TIGER', 'TURTLE', 'RULER', 'OWL', 'DRILL', 'OCEAN', 'SEA', 'DUCK']",0.0,False,[],,,categorized_16_5,,0.0,,
17,text-recall,,text-recall,68.0,4163547.0,0.0-59.0,pilot,59,opt-rems-full,debugqdmNN:debuguPdp3,False,"['CRIMSON', 'LIGHTNING', 'FENCING', 'STEAM', 'GOLF', 'TAN', 'GYMNASTICS', 'OIL', 'RAIN', 'INDIGO', 'SCARLET', 'CLOUDS', 'GALE', 'WATER SOLAR']","['CRIMSON', 'LIGHTNING', 'FENCING', 'STEAM', 'GOLF', 'TAN', 'GYMNASTICS', 'OIL', 'RAIN', 'INDIGO', 'SCARLET', 'CLOUDS', 'GALE']","['FISHING', 'SOLAR', 'WATER']","['FISHING', 'CRIMSON', 'LIGHTNING', 'FENCING', 'STEAM', 'GOLF', 'TAN', 'GYMNASTICS', 'OIL', 'RAIN', 'INDIGO', 'GALE', 'SCARLET', 'CLOUDS', 'SOLAR', 'WATER']",13.0,False,"[10959, 7592, 7207, 4921, 5112, 5568, 10408, 3328, 4864, 5128, 5456, 4232, 4528, 7288]",True,90000.0,categorized_16_0,,,,
18,reminder-none,,reminder,69.0,4164561.0,0.0-60.0,pilot,59,opt-rems-full,debugqdmNN:debuguPdp3,False,[],[],[],"['FISHING', 'CRIMSON', 'LIGHTNING', 'FENCING', 'STEAM', 'GOLF', 'TAN', 'GYMNASTICS', 'OIL', 'RAIN', 'INDIGO', 'GALE', 'SCARLET', 'CLOUDS', 'SOLAR', 'WATER']",0.0,False,[],,,categorized_16_0,,0.0,,
19,text-recall,,text-recall,72.0,4538369.0,0.0-63.0,pilot,59,opt-rems-full,debugqdmNN:debuguPdp3,False,"['ESSAY', 'LEATHER', 'BLIZZARD', 'HELICOPTER', 'HAIL', 'RAYON', 'TROLLEY', 'MANUSCRIPT', 'LACE', 'JET', 'SNOW']","['ESSAY', 'LEATHER', 'BLIZZARD', 'HELICOPTER', 'HAIL', 'RAYON', 'TROLLEY', 'MANUSCRIPT', 'LACE', 'JET', 'SNOW']","['LETTER', 'SUBWAY', 'WIND', 'PAPER', 'VELVET']","['LETTER', 'ESSAY', 'LEATHER', 'BLIZZARD', 'HELICOPTER', 'HAIL', 'RAYON', 'TROLLEY', 'MANUSCRIPT', 'SUBWAY', 'WIND', 'SNOW', 'LACE', 'JET', 'PAPER', 'VELVET']",11.0,False,"[15619, 7176, 7080, 12808, 6200, 5584, 5856, 13792, 7104, 2632, 2952]",True,90000.0,categorized_16_7,,,,
20,reminder-none,,reminder,73.0,4539389.0,0.0-64.0,pilot,59,opt-rems-full,debugqdmNN:debuguPdp3,False,[],[],[],"['LETTER', 'ESSAY', 'LEATHER', 'BLIZZARD', 'HELICOPTER', 'HAIL', 'RAYON', 'TROLLEY', 'MANUSCRIPT', 'SUBWAY', 'WIND', 'SNOW', 'LACE', 'JET', 'PAPER', 'VELVET']",0.0,False,[],,,categorized_16_7,,0.0,,
21,text-recall,,text-recall,76.0,4696170.0,0.0-67.0,pilot,59,opt-rems-full,debugqdmNN:debuguPdp3,False,"['LAMP', 'PUNK', 'BELT', 'TROUSERS', 'JACKET', 'STRAWBERRY', 'SYMPHONY', 'CABINET', 'CHERRY', 'SOUL', 'DESK', 'OTTOMAN', 'PLUM', 'SKA', 'SUIT']","['LAMP', 'PUNK', 'BELT', 'TROUSERS', 'JACKET', 'STRAWBERRY', 'SYMPHONY', 'CABINET', 'CHERRY', 'SOUL', 'DESK', 'OTTOMAN', 'PLUM', 'SKA', 'SUIT']",['GRAPE'],"['LAMP', 'PUNK', 'BELT', 'TROUSERS', 'JACKET', 'STRAWBERRY', 'SYMPHONY', 'CABINET', 'CHERRY', 'GRAPE', 'SOUL', 'DESK', 'OTTOMAN', 'SUIT', 'SKA', 'PLUM']",15.0,False,"[9841, 3504, 4040, 5255, 5088, 6057, 6281, 7742, 8192, 5864, 3080, 7264, 4448, 6144, 5568]",True,90000.0,categorized_16_4,,,,
22,reminder-none,,reminder,77.0,4697186.0,0.0-68.0,pilot,59,opt-rems-full,debugqdmNN:debuguPdp3,True,[],[],[],"['LAMP', 'PUNK', 'BELT', 'TROUSERS', 'JACKET', 'STRAWBERRY', 'SYMPHONY', 'CABINET', 'CHERRY', 'GRAPE', 'SOUL', 'DESK', 'OTTOMAN', 'SUIT', 'SKA', 'PLUM']",0.0,False,[],,,categorized_16_4,,0.0,,
23,text-recall,,text-recall,80.0,4850218.0,0.0-71.0,pilot,59,opt-rems-full,debugqdmNN:debuguPdp3,False,"['ELEVATOR', 'DROUGHT', 'REPORT', 'CLOSET', 'BOOKLET', 'CELLAR', 'TYPHOON', 'KITE', 'PAMPLET', 'NINTENDO', 'CYCLONE', 'ENCYCLOPEDIA', 'MONSOON']","['ELEVATOR', 'DROUGHT', 'REPORT', 'CLOSET', 'BOOKLET', 'CELLAR', 'TYPHOON', 'KITE', 'PAMPHLET', 'CYCLONE', 'ENCYCLOPEDIA', 'MONSOON']","['BLOCKS', 'WING', 'NINTENDO', 'PUZZLE']","['ELEVATOR', 'DROUGHT', 'REPORT', 'CLOSET', 'BOOKLET', 'CELLAR', 'TYPHOON', 'KITE', 'PAMPHLET', 'BLOCKS', 'WING', 'NINTENDO', 'PUZZLE', 'CYCLONE', 'MONSOON', 'ENCYCLOPEDIA']",12.0,False,"[9412, 5264, 4384, 4776, 4264, 5168, 6072, 4952, 10728, 7873, 5287, 10143, 7745]",True,90000.0,categorized_16_8,,,,
24,reminder-none,,reminder,81.0,4851243.0,0.0-72.0,pilot,59,opt-rems-full,debugqdmNN:debuguPdp3,False,[],[],[],"['ELEVATOR', 'DROUGHT', 'REPORT', 'CLOSET', 'BOOKLET', 'CELLAR', 'TYPHOON', 'KITE', 'PAMPHLET', 'BLOCKS', 'WING', 'NINTENDO', 'PUZZLE', 'CYCLONE', 'MONSOON', 'ENCYCLOPEDIA']",0.0,False,[],,,categorized_16_8,,0.0,,
25,total-points,,,,,,,,,debugqdmNN:debuguPdp3,,,,,,,,,,,,,,debugqdmNN:debuguPdp3,139.0
26,survey-text,"{""Q0"":""62f83cb59e7df1ff5d4c5a59""}",survey-text,0.0,2783.0,0.0-0.0,pilot,53,opt-rems-full,debugCSKIj:debugx5yMt,,,,,,,,,,,,,,,
27,text-recall,,text-recall,25.0,633492.0,0.0-27.0,pilot,53,opt-rems-full,debugCSKIj:debugx5yMt,False,"['BOOKLET', 'TANKER', 'DROUGHT', 'CYCLONE', 'ENCYCLOPEDIA', 'DESTROYER', 'SLOOP', 'SWIMMING', 'BOXING', 'FENCING', 'HANDBALL', 'FROST']","['BOOKLET', 'TANKER', 'DROUGHT', 'CYCLONE', 'ENCYCLOPEDIA', 'DESTROYER', 'SLOOP', 'SWIMMING', 'BOXING', 'FENCING', 'HANDBALL', 'FROST']","['RAIN', 'BARGE', 'PAMPHLET', 'NOTE']","['RAIN', 'DESTROYER', 'BARGE', 'PAMPHLET', 'SLOOP', 'FROST', 'SWIMMING', 'NOTE', 'ENCYCLOPEDIA', 'HANDBALL', 'FENCING', 'BOXING', 'TANKER', 'CYCLONE', 'DROUGHT', 'BOOKLET']",12.0,False,"[2057, 1294, 1255, 1394, 7342, 5451, 3285, 1860, 1814, 1881, 1433, 17875]",True,60747.0,categorized_16_4,,,,
28,reminder-random,,reminder,26.0,669299.0,0.0-28.0,pilot,53,opt-rems-full,debugCSKIj:debugx5yMt,False,['PAMPHLET'],['PAMPHLET'],"['RAIN', 'BARGE']","['RAIN', 'DESTROYER', 'BARGE', 'PAMPHLET', 'SLOOP', 'FROST', 'SWIMMING', 'NOTE', 'ENCYCLOPEDIA', 'HANDBALL', 'FENCING', 'BOXING', 'TANKER', 'CYCLONE', 'DROUGHT', 'BOOKLET']",1.0,False,[4800],,,categorized_16_4,NOTE,3000.0,,
29,text-recall,,text-recall,29.0,769975.0,0.0-31.0,pilot,53,opt-rems-full,debugCSKIj:debugx5yMt,False,"['LACROSSE', 'CHICKEN', 'WORM', 'BEETLE', 'HAWK', 'FINCH', 'MOSQUITO', 'WASP', 'FIDDLE', 'CLARINET', 'SAILING']","['LACROSSE', 'CHICKEN', 'WORM', 'BEETLE', 'HAWK', 'FINCH', 'MOSQUITO', 'WASP', 'FIDDLE', 'CLARINET', 'SAILING']","['SKIING', 'HARP', 'ACCORDION', 'TRACK', 'SPARROW']","['SAILING', 'FIDDLE', 'CLARINET', 'SKIING', 'HARP', 'ACCORDION', 'FINCH', 'TRACK', 'HAWK', 'MOSQUITO', 'CHICKEN', 'WORM', 'BEETLE', 'WASP', 'SPARROW', 'LACROSSE']",11.0,False,"[1566, 1187, 944, 1263, 992, 1183, 2124, 820, 4187, 1354, 12994]",True,42692.0,categorized_16_3,,,,
30,reminder-worst,,reminder,30.0,824784.0,0.0-32.0,pilot,53,opt-rems-full,debugCSKIj:debugx5yMt,False,[],[],"['SKIING', 'HARP', 'ACCORDION', 'TRACK']","['SAILING', 'FIDDLE', 'CLARINET', 'SKIING', 'HARP', 'ACCORDION', 'FINCH', 'TRACK', 'HAWK', 'MOSQUITO', 'CHICKEN', 'WORM', 'BEETLE', 'WASP', 'SPARROW', 'LACROSSE']",0.0,False,[],,,categorized_16_3,SPARROW,3000.0,,
31,text-recall,,text-recall,33.0,927679.0,0.0-35.0,pilot,53,opt-rems-full,debugCSKIj:debugx5yMt,False,"['TANGO', 'BUNGALOW', 'HUT', 'FALCON', 'OWL', 'MANSION', 'CELLAR', 'ELEVATOR', 'ATTIC', 'PORCH', 'SWING']","['TANGO', 'BUNGALOW', 'HUT', 'FALCON', 'OWL', 'MANSION', 'CELLAR', 'ELEVATOR', 'ATTIC', 'PORCH', 'SWING']","['BALLET', 'DOVE', 'BALLROOM', 'DORMITORY', 'DUCK']","['MANSION', 'PORCH', 'ATTIC', 'CELLAR', 'FALCON', 'SWING', 'BALLET', 'DOVE', 'ELEVATOR', 'OWL', 'BALLROOM', 'DORMITORY', 'HUT', 'BUNGALOW', 'TANGO', 'DUCK']",11.0,False,"[1464, 1488, 818, 4045, 811, 3323, 1399, 1603, 3933, 1370, 1279]",True,47735.0,categorized_16_6,,,,
32,reminder-random,,reminder,34.0,976344.0,0.0-36.0,pilot,53,opt-rems-full,debugCSKIj:debugx5yMt,False,['BALLROOM'],['BALLROOM'],"['DOVE', 'DORMITORY', 'DUCK']","['MANSION', 'PORCH', 'ATTIC', 'CELLAR', 'FALCON', 'SWING', 'BALLET', 'DOVE', 'ELEVATOR', 'OWL', 'BALLROOM', 'DORMITORY', 'HUT', 'BUNGALOW', 'TANGO', 'DUCK']",1.0,False,[2035],,,categorized_16_6,BALLET,3000.0,,
33,text-recall,,text-recall,37.0,1086588.0,0.0-39.0,pilot,53,opt-rems-full,debugCSKIj:debugx5yMt,False,"['ELK', 'BUFFALO', 'FLOOD', 'MONSOON', 'BLIZZARD', 'VALLEY', 'GORGE', 'CANYON', 'FAULT', 'LIZARD', 'TURTLE', 'FLOOD', 'BUFFALO']","['ELK', 'BUFFALO', 'FLOOD', 'MONSOON', 'BLIZZARD', 'VALLEY', 'GORGE', 'CANYON', 'FAULT', 'LIZARD', 'TURTLE']","['SEEDS', 'HOSE', 'SOIL', 'CLIPPERS', 'CLOUDS']","['SEEDS', 'MONSOON', 'HOSE', 'VALLEY', 'SOIL', 'FAULT', 'GORGE', 'LIZARD', 'BUFFALO', 'CLIPPERS', 'BLIZZARD', 'TURTLE', 'CLOUDS', 'CANYON', 'ELK', 'FLOOD']",11.0,False,"[1155, 1523, 950, 3163, 1480, 1257, 1095, 1250, 1116, 5329, 1479, 10958, 9782]",True,51093.0,categorized_16_11,,,,
34,reminder-worst,,reminder,38.0,1132357.0,0.0-40.0,pilot,53,opt-rems-full,debugCSKIj:debugx5yMt,False,[],[],"['SEEDS', 'HOSE', 'SOIL', 'CLOUDS']","['SEEDS', 'MONSOON', 'HOSE', 'VALLEY', 'SOIL', 'FAULT', 'GORGE', 'LIZARD', 'BUFFALO', 'CLIPPERS', 'BLIZZARD', 'TURTLE', 'CLOUDS', 'CANYON', 'ELK', 'FLOOD']",0.0,False,[],,,categorized_16_11,CLIPPERS,3000.0,,
35,text-recall,,text-recall,41.0,1226660.0,0.0-43.0,pilot,53,opt-rems-full,debugCSKIj:debugx5yMt,False,"['TSUNAMI', 'EARTHQUAKE', 'REDWOOD', 'WILLOW', 'OIL', 'WATER', 'STEAM', 'GALE']","['TSUNAMI', 'EARTHQUAKE', 'REDWOOD', 'WILLOW', 'OIL', 'WATER', 'STEAM', 'GALE']","['THUNDER', 'NINTENDO', 'BLOCKS', 'EUCALYPTUS', 'NUCLEAR', 'PUZZLE', 'POPLAR', 'BALL']","['THUNDER', 'OIL', 'EARTHQUAKE', 'GALE', 'REDWOOD', 'NINTENDO', 'BLOCKS', 'EUCALYPTUS', 'NUCLEAR', 'WATER', 'PUZZLE', 'POPLAR', 'BALL', 'STEAM', 'WILLOW', 'TSUNAMI']",8.0,False,"[1757, 2941, 1573, 1677, 2975, 894, 1339, 10681]",True,37490.0,categorized_16_0,,,,
36,reminder-best,,reminder,42.0,1285809.0,0.0-44.0,pilot,53,opt-rems-full,debugCSKIj:debugx5yMt,False,['BALL'],['BALL'],"['THUNDER', 'NINTENDO', 'BLOCKS', 'EUCALYPTUS', 'NUCLEAR', 'PUZZLE']","['THUNDER', 'OIL', 'EARTHQUAKE', 'GALE', 'REDWOOD', 'NINTENDO', 'BLOCKS', 'EUCALYPTUS', 'NUCLEAR', 'WATER', 'PUZZLE', 'POPLAR', 'BALL', 'STEAM', 'WILLOW', 'TSUNAMI']",1.0,False,[1540],,,categorized_16_0,POPLAR,3000.0,,
37,text-recall,,text-recall,45.0,1396776.0,0.0-47.0,pilot,53,opt-rems-full,debugCSKIj:debugx5yMt,False,"['CAMEL', 'RIDGE', 'PLATEAU', 'ISLAND', 'LAKE', 'FOX', 'WOLF', 'MOUSE']","['CAMEL', 'RIDGE', 'PLATEAU', 'ISLAND', 'LAKE', 'FOX', 'WOLF', 'MOUSE']","['CART', 'TAXI', 'SAGE', 'GINGER', 'SUBWAY', 'VANILLA', 'JET', 'SUGAR']","['ISLAND', 'CART', 'MOUSE', 'TAXI', 'SAGE', 'GINGER', 'SUBWAY', 'FOX', 'WOLF', 'VANILLA', 'PLATEAU', 'LAKE', 'JET', 'RIDGE', 'SUGAR', 'CAMEL']",8.0,False,"[1351, 1067, 2761, 2182, 849, 1369, 1222, 1569]",True,52355.0,categorized_16_10,,,,
38,reminder-worst,,reminder,46.0,1441036.0,0.0-48.0,pilot,53,opt-rems-full,debugCSKIj:debugx5yMt,False,['TAXI'],['TAXI'],"['SAGE', 'GINGER', 'SUBWAY', 'VANILLA', 'JET', 'SUGAR']","['ISLAND', 'CART', 'MOUSE', 'TAXI', 'SAGE', 'GINGER', 'SUBWAY', 'FOX', 'WOLF', 'VANILLA', 'PLATEAU', 'LAKE', 'JET', 'RIDGE', 'SUGAR', 'CAMEL']",1.0,False,[3709],,,categorized_16_10,CART,3000.0,,
39,text-recall,,text-recall,49.0,1543316.0,0.0-51.0,pilot,53,opt-rems-full,debugCSKIj:debugx5yMt,False,"['RAYON', 'CANARY', 'FELT', 'LINEN', 'VULTURE', 'CROW', 'GOLF', 'FISHING', 'BOWLING', 'GOLF']","['RAYON', 'CANARY', 'FELT', 'LINEN', 'VULTURE', 'CROW', 'GOLF', 'FISHING', 'BOWLING']","['RUGBY', 'WING', 'ROOF', 'CEILING', 'LEATHER', 'PIGEON', 'CLOSET']","['GOLF', 'FISHING', 'RUGBY', 'CANARY', 'WING', 'BOWLING', 'FELT', 'VULTURE', 'ROOF', 'CROW', 'CEILING', 'LEATHER', 'PIGEON', 'LINEN', 'CLOSET', 'RAYON']",9.0,False,"[2541, 2623, 1272, 1029, 2002, 1005, 1948, 1678, 1464, 25030]",True,46872.0,categorized_16_1,,,,
40,reminder-random,,reminder,50.0,1593061.0,0.0-52.0,pilot,53,opt-rems-full,debugCSKIj:debugx5yMt,False,['ROOF'],['ROOF'],"['RUGBY', 'WING', 'LEATHER', 'PIGEON', 'CLOSET']","['GOLF', 'FISHING', 'RUGBY', 'CANARY', 'WING', 'BOWLING', 'FELT', 'VULTURE', 'ROOF', 'CROW', 'CEILING', 'LEATHER', 'PIGEON', 'LINEN', 'CLOSET', 'RAYON']",1.0,False,[1484],,,categorized_16_1,CEILING,3000.0,,
41,text-recall,,text-recall,53.0,1708004.0,0.0-55.0,pilot,53,opt-rems-full,debugCSKIj:debugx5yMt,False,"['INDIGO', 'BROWN', 'MAROON', 'TAN', 'JOURNAL', 'TYPHOON', 'SUNSHINE', 'MANUSCRIPT', 'BOAT']","['INDIGO', 'BROWN', 'MAROON', 'TAN', 'JOURNAL', 'TYPHOON', 'SUNSHINE', 'MANUSCRIPT', 'BOAT']","['LETTER', 'BICYCLE', 'BULLETIN', 'TROLLEY', 'STREETCAR', 'LIGHTNING', 'WIND']","['TYPHOON', 'LETTER', 'JOURNAL', 'BICYCLE', 'BULLETIN', 'SUNSHINE', 'TROLLEY', 'INDIGO', 'BROWN', 'MAROON', 'STREETCAR', 'LIGHTNING', 'BOAT', 'MANUSCRIPT', 'WIND', 'TAN']",9.0,False,"[1504, 1130, 1768, 1084, 3604, 5585, 6440, 7437, 14130]",True,58202.0,categorized_16_7,,,,
42,reminder-best,,reminder,54.0,1746356.0,0.0-56.0,pilot,53,opt-rems-full,debugCSKIj:debugx5yMt,False,['LIGHTNING'],['LIGHTNING'],"['LETTER', 'BULLETIN', 'TROLLEY', 'STREETCAR', 'WIND']","['TYPHOON', 'LETTER', 'JOURNAL', 'BICYCLE', 'BULLETIN', 'SUNSHINE', 'TROLLEY', 'INDIGO', 'BROWN', 'MAROON', 'STREETCAR', 'LIGHTNING', 'BOAT', 'MANUSCRIPT', 'WIND', 'TAN']",1.0,False,[16589],,,categorized_16_7,BICYCLE,3000.0,,
43,text-recall,,text-recall,57.0,1923045.0,0.0-59.0,pilot,53,opt-rems-full,debugCSKIj:debugx5yMt,False,"['PARROT', 'CARP', 'PENGUIN', 'SHARK', 'BADMINTON', 'GYMNASTICS', 'INSTRUMENTAL', 'SYMPHONY', 'CATFISH', 'CARP', 'PERCH', 'SOFTBALL', 'RUGBY']","['PARROT', 'CARP', 'PENGUIN', 'SHARK', 'BADMINTON', 'GYMNASTICS', 'INSTRUMENTAL', 'SYMPHONY', 'CATFISH', 'PERCH', 'SOFTBALL']","['SKA', 'WRESTLING', 'CRANE', 'PEACOCK', 'SOUL']","['SHARK', 'PENGUIN', 'BADMINTON', 'SKA', 'WRESTLING', 'SYMPHONY', 'CRANE', 'PEACOCK', 'GYMNASTICS', 'CATFISH', 'INSTRUMENTAL', 'SOFTBALL', 'SOUL', 'PERCH', 'PARROT', 'CARP']",11.0,False,"[2179, 1074, 1470, 988, 2661, 6083, 1840, 2551, 15120, 917, 19652, 6651, 7941]",True,73990.0,categorized_16_8,,,,
44,reminder-best,,reminder,58.0,1949650.0,0.0-60.0,pilot,53,opt-rems-full,debugCSKIj:debugx5yMt,False,[],[],"['WRESTLING', 'CRANE', 'PEACOCK', 'SOUL']","['SHARK', 'PENGUIN', 'BADMINTON', 'SKA', 'WRESTLING', 'SYMPHONY', 'CRANE', 'PEACOCK', 'GYMNASTICS', 'CATFISH', 'INSTRUMENTAL', 'SOFTBALL', 'SOUL', 'PERCH', 'PARROT', 'CARP']",0.0,False,[],,,categorized_16_8,SKA,3000.0,,
45,text-recall,,text-recall,61.0,2049851.0,0.0-63.0,pilot,53,opt-rems-full,debugCSKIj:debugx5yMt,False,"['BATHROOM', 'ROOM', 'WALLS', 'BASEMENT', 'HARMONICA', 'BANJO', 'VIOLA', 'ELM', 'EVERGREEN', 'FIR', 'BATTLESHIP', 'YACHT', 'SCHOONER']","['BATHROOM', 'ROOM', 'WALLS', 'BASEMENT', 'HARMONICA', 'BANJO', 'VIOLA', 'ELM', 'EVERGREEN', 'FIR', 'BATTLESHIP', 'YACHT', 'SCHOONER']","['KEYBOARD', 'FERRY', 'BEECH']","['ROOM', 'ELM', 'KEYBOARD', 'EVERGREEN', 'FERRY', 'HARMONICA', 'BANJO', 'WALLS', 'BATHROOM', 'FIR', 'SCHOONER', 'BEECH', 'YACHT', 'BATTLESHIP', 'BASEMENT', 'VIOLA']",13.0,False,"[4656, 813, 1033, 1711, 4158, 1142, 1199, 1071, 4410, 804, 12667, 1428, 1223]",True,44832.0,categorized_16_5,,,,
46,reminder-best,,reminder,62.0,2101585.0,0.0-64.0,pilot,53,opt-rems-full,debugCSKIj:debugx5yMt,False,[],[],"['KEYBOARD', 'BEECH']","['ROOM', 'ELM', 'KEYBOARD', 'EVERGREEN', 'FERRY', 'HARMONICA', 'BANJO', 'WALLS', 'BATHROOM', 'FIR', 'SCHOONER', 'BEECH', 'YACHT', 'BATTLESHIP', 'BASEMENT', 'VIOLA']",0.0,False,[],,,categorized_16_5,FERRY,3000.0,,
47,text-recall,,text-recall,65.0,2202884.0,0.0-67.0,pilot,53,opt-rems-full,debugCSKIj:debugx5yMt,False,"['CHERRY', 'FIG', 'MANGO', 'GRAPE', 'OTTOMAN', 'KITCHEN', 'MOTORCYCLE', 'HELICOPTER', 'VAN', 'LOBBY', 'ENTRANCE', 'FLOOR', 'DESK', 'BUREAU', 'CABINET']","['CHERRY', 'FIG', 'MANGO', 'GRAPE', 'OTTOMAN', 'KITCHEN', 'MOTORCYCLE', 'HELICOPTER', 'VAN', 'LOBBY', 'ENTRANCE', 'FLOOR', 'DESK', 'BUREAU', 'CABINET']",['JEEP'],"['FIG', 'KITCHEN', 'DESK', 'OTTOMAN', 'HELICOPTER', 'CABINET', 'FLOOR', 'GRAPE', 'LOBBY', 'MOTORCYCLE', 'BUREAU', 'ENTRANCE', 'CHERRY', 'VAN', 'MANGO', 'JEEP']",15.0,False,"[1280, 1061, 1672, 1141, 1456, 1143, 1929, 2799, 1484, 1131, 2129, 1041, 17142, 2115, 2746]",True,44622.0,categorized_16_2,,,,
48,reminder-none,,reminder,66.0,2203887.0,0.0-68.0,pilot,53,opt-rems-full,debugCSKIj:debugx5yMt,True,[],[],[],"['FIG', 'KITCHEN', 'DESK', 'OTTOMAN', 'HELICOPTER', 'CABINET', 'FLOOR', 'GRAPE', 'LOBBY', 'MOTORCYCLE', 'BUREAU', 'ENTRANCE', 'CHERRY', 'VAN', 'MANGO', 'JEEP']",0.0,False,[],,,categorized_16_2,,0.0,,
49,text-recall,,text-recall,69.0,2312843.0,0.0-71.0,pilot,53,opt-rems-full,debugCSKIj:debugx5yMt,False,"['TRACTOR', 'TRAILER', 'BOLT', 'MOOSE', 'DRILL', 'TRAIN', 'PAPER', 'PENCIL', 'ESSAY', 'RULER', 'RAT', 'SQUIRREL']","['TRACTOR', 'TRAILER', 'BOLT', 'MOOSE', 'DRILL', 'TRAIN', 'PAPER', 'PENCIL', 'ESSAY', 'RULER', 'RAT', 'SQUIRREL']","['EDITORIAL', 'CARRIAGE', 'DIGEST', 'TIGER']","['EDITORIAL', 'TRAILER', 'RAT', 'CARRIAGE', 'ESSAY', 'TRAIN', 'BOLT', 'PAPER', 'PENCIL', 'DIGEST', 'SQUIRREL', 'TIGER', 'TRACTOR', 'MOOSE', 'RULER', 'DRILL']",12.0,False,"[2051, 1646, 922, 1133, 2198, 5469, 3607, 1539, 1143, 1174, 17194, 4544]",True,52561.0,categorized_16_9,,,,
50,reminder-worst,,reminder,70.0,2356735.0,0.0-72.0,pilot,53,opt-rems-full,debugCSKIj:debugx5yMt,False,[],[],"['EDITORIAL', 'DIGEST', 'TIGER']","['EDITORIAL', 'TRAILER', 'RAT', 'CARRIAGE', 'ESSAY', 'TRAIN', 'BOLT', 'PAPER', 'PENCIL', 'DIGEST', 'SQUIRREL', 'TIGER', 'TRACTOR', 'MOOSE', 'RULER', 'DRILL']",0.0,False,[],,,categorized_16_9,CARRIAGE,3000.0,,
51,total-points,,,,,,,,,debugCSKIj:debugx5yMt,,,,,,,,,,,,,,debugCSKIj:debugx5yMt,145.0
52,survey-text,"{""Q0"":""5f63d462fb4c4713b69d4bb7""}",survey-text,0.0,24630.0,0.0-0.0,pilot,21,opt-rems-full,debugibM81:debugfnWxH,,,,,,,,,,,,,,,
53,text-recall,,text-recall,30.0,603994.0,0.0-27.0,pilot,21,opt-rems-full,debugibM81:debugfnWxH,False,"['LETTER', 'DIGEST', 'BLUES', 'MOTOCYCLE']","['LETTER', 'DIGEST', 'BLUES']","['NOVEL', 'SPARROW', 'VULTURE', 'MOTORCYCLE', 'CROW', 'TRAIN', 'PARROT', 'BOAT', 'POP', 'HELICOPTER', 'INSTRUMENTAL', 'ENCYCLOPEDIA', 'BLUEGRASS']","['NOVEL', 'BLUES', 'SPARROW', 'VULTURE', 'MOTORCYCLE', 'CROW', 'TRAIN', 'PARROT', 'BOAT', 'POP', 'HELICOPTER', 'INSTRUMENTAL', 'ENCYCLOPEDIA', 'BLUEGRASS', 'DIGEST', 'LETTER']",3.0,False,"[2031, 2782, 2480, 6778]",True,23227.0,categorized_16_11,,,,
54,reminder-worst,,reminder,31.0,679276.0,0.0-28.0,pilot,21,opt-rems-full,debugibM81:debugfnWxH,False,"['ENCYCLOPDA', 'CROW', 'SPARROW', 'HELICOPTER', 'PARROT', 'BLUEGRASS']","['CROW', 'SPARROW', 'HELICOPTER', 'PARROT', 'BLUEGRASS']","['NOVEL', 'VULTURE', 'MOTORCYCLE', 'TRAIN', 'BOAT', 'POP', 'INSTRUMENTAL']","['NOVEL', 'BLUES', 'SPARROW', 'VULTURE', 'MOTORCYCLE', 'CROW', 'TRAIN', 'PARROT', 'BOAT', 'POP', 'HELICOPTER', 'INSTRUMENTAL', 'ENCYCLOPEDIA', 'BLUEGRASS', 'DIGEST', 'LETTER']",5.0,False,"[3781, 2963, 1766, 4957, 7692, 7390]",,,categorized_16_11,ENCYCLOPEDIA,3000.0,,
55,text-recall,,text-recall,34.0,798714.0,0.0-31.0,pilot,21,opt-rems-full,debugibM81:debugfnWxH,False,"['SKA', 'VALLEY', 'HILL', 'GORGE', 'REGGAE', 'CEDER', 'POP', 'TECHNO']","['SKA', 'VALLEY', 'HILL', 'GORGE', 'REGGAE', 'TECHNO']","['TIGER', 'BIRCH', 'DONKEY', 'GOSPEL', 'EUCALYPTUS', 'MOUSE', 'PLAIN', 'ELK', 'FIR', 'CEDAR']","['TIGER', 'BIRCH', 'DONKEY', 'GOSPEL', 'GORGE', 'VALLEY', 'REGGAE', 'EUCALYPTUS', 'HILL', 'MOUSE', 'PLAIN', 'SKA', 'ELK', 'FIR', 'CEDAR', 'TECHNO']",6.0,False,"[3441, 1882, 7230, 4461, 20409, 5602, 5136, 14360]",True,65492.0,categorized_16_4,,,,
56,reminder-random,,reminder,35.0,829863.0,0.0-32.0,pilot,21,opt-rems-full,debugibM81:debugfnWxH,False,"['BIRCH', 'MOUNTAIN', 'MOUSE']",['MOUSE'],"['TIGER', 'DONKEY', 'GOSPEL', 'EUCALYPTUS', 'PLAIN', 'ELK', 'FIR', 'CEDAR']","['TIGER', 'BIRCH', 'DONKEY', 'GOSPEL', 'GORGE', 'VALLEY', 'REGGAE', 'EUCALYPTUS', 'HILL', 'MOUSE', 'PLAIN', 'SKA', 'ELK', 'FIR', 'CEDAR', 'TECHNO']",1.0,False,"[1396, 12164, 5125]",,,categorized_16_4,BIRCH,3000.0,,
57,text-recall,,text-recall,38.0,929353.0,0.0-35.0,pilot,21,opt-rems-full,debugibM81:debugfnWxH,False,"['FERRY', 'ELM', 'BEECH', 'SLOOP', 'CANYON', 'WATERFALL', 'FENCHING', 'GLAICER', 'GOLF']","['FERRY', 'ELM', 'BEECH', 'SLOOP', 'CANYON', 'WATERFALL', 'FENCING', 'GOLF']","['DIVING', 'MAPLE', 'GLACIER', 'EVERGREEN', 'BARGE', 'CLIFF', 'HANDBALL', 'YACHT']","['ELM', 'DIVING', 'MAPLE', 'GLACIER', 'EVERGREEN', 'BARGE', 'CLIFF', 'GOLF', 'HANDBALL', 'WATERFALL', 'FENCING', 'BEECH', 'YACHT', 'SLOOP', 'CANYON', 'FERRY']",8.0,False,"[3267, 1710, 2394, 7173, 2168, 5984, 3510, 4890, 2943]",True,35719.0,categorized_16_0,,,,
58,reminder-best,,reminder,39.0,990151.0,0.0-36.0,pilot,21,opt-rems-full,debugibM81:debugfnWxH,False,"['GLAICER', 'MAPLE']",['MAPLE'],"['DIVING', 'EVERGREEN', 'BARGE', 'CLIFF', 'HANDBALL', 'YACHT']","['ELM', 'DIVING', 'MAPLE', 'GLACIER', 'EVERGREEN', 'BARGE', 'CLIFF', 'GOLF', 'HANDBALL', 'WATERFALL', 'FENCING', 'BEECH', 'YACHT', 'SLOOP', 'CANYON', 'FERRY']",1.0,False,"[4751, 4028]",,,categorized_16_0,GLACIER,3000.0,,
59,text-recall,,text-recall,42.0,1098302.0,0.0-39.0,pilot,21,opt-rems-full,debugibM81:debugfnWxH,False,"['PALACE', 'HUT', 'REPORT', 'HOTEL', 'BANJO', 'BROWN', 'BOOKLET', 'EDITITOAL', 'KEYBORAD', 'FIDDLE']","['PALACE', 'HUT', 'REPORT', 'HOTEL', 'BANJO', 'BROWN', 'BOOKLET', 'KEYBOARD', 'FIDDLE']","['DORMITORY', 'JOURNAL', 'VIOLA', 'INDIGO', 'CRIMSON', 'EDITORIAL', 'MAROON']","['HUT', 'DORMITORY', 'JOURNAL', 'BOOKLET', 'VIOLA', 'INDIGO', 'CRIMSON', 'EDITORIAL', 'BROWN', 'MAROON', 'REPORT', 'BANJO', 'HOTEL', 'FIDDLE', 'KEYBOARD', 'PALACE']",9.0,False,"[9313, 2128, 5604, 3423, 1368, 3065, 8954, 7666, 5037, 1519]",True,52254.0,categorized_16_10,,,,
60,reminder-best,,reminder,43.0,1142718.0,0.0-40.0,pilot,21,opt-rems-full,debugibM81:debugfnWxH,False,['INDIGO'],['INDIGO'],"['DORMITORY', 'JOURNAL', 'VIOLA', 'CRIMSON', 'MAROON']","['HUT', 'DORMITORY', 'JOURNAL', 'BOOKLET', 'VIOLA', 'INDIGO', 'CRIMSON', 'EDITORIAL', 'BROWN', 'MAROON', 'REPORT', 'BANJO', 'HOTEL', 'FIDDLE', 'KEYBOARD', 'PALACE']",1.0,False,[7596],,,categorized_16_10,EDITORIAL,3000.0,,
61,text-recall,,text-recall,46.0,1232179.0,0.0-43.0,pilot,21,opt-rems-full,debugibM81:debugfnWxH,False,"['PORCH', 'EARTHQUAKE', 'HAIL', 'FINCH', 'BOXING']","['PORCH', 'EARTHQUAKE', 'HAIL', 'FINCH', 'BOXING']","['SNOW', 'ELEVATOR', 'LACROSSE', 'BLIZZARD', 'DUCK', 'BATHROOM', 'RUGBY', 'FLOOR', 'TRACK', 'PENGUIN', 'CANARY']","['BOXING', 'SNOW', 'ELEVATOR', 'LACROSSE', 'BLIZZARD', 'DUCK', 'HAIL', 'BATHROOM', 'FINCH', 'RUGBY', 'FLOOR', 'TRACK', 'PENGUIN', 'CANARY', 'EARTHQUAKE', 'PORCH']",5.0,False,"[7113, 4277, 4147, 6686, 10527]",True,35854.0,categorized_16_5,,,,
62,reminder-best,,reminder,47.0,1293018.0,0.0-44.0,pilot,21,opt-rems-full,debugibM81:debugfnWxH,False,"['FLOOR', 'TRACK', 'PENGUIN', 'BATHROOM']","['TRACK', 'PENGUIN', 'BATHROOM']","['SNOW', 'ELEVATOR', 'LACROSSE', 'BLIZZARD', 'DUCK', 'RUGBY', 'CANARY']","['BOXING', 'SNOW', 'ELEVATOR', 'LACROSSE', 'BLIZZARD', 'DUCK', 'HAIL', 'BATHROOM', 'FINCH', 'RUGBY', 'FLOOR', 'TRACK', 'PENGUIN', 'CANARY', 'EARTHQUAKE', 'PORCH']",3.0,False,"[2907, 2711, 2966, 5115]",,,categorized_16_5,FLOOR,3000.0,,
63,text-recall,,text-recall,50.0,1373263.0,0.0-47.0,pilot,21,opt-rems-full,debugibM81:debugfnWxH,False,"['ATTIC', 'SAGE', 'RAIN', 'FROST', 'SOFTBALL', 'FLOOD', 'VOLLEYBALL']","['ATTIC', 'SAGE', 'RAIN', 'FROST', 'SOFTBALL', 'FLOOD', 'VOLLEYBALL']","['VANILLA', 'SUGAR', 'ENTRANCE', 'FISHING', 'LOBBY', 'CLOSET', 'GINGER', 'SAILING', 'FOG']","['VANILLA', 'ATTIC', 'SUGAR', 'ENTRANCE', 'FISHING', 'LOBBY', 'CLOSET', 'GINGER', 'SAGE', 'RAIN', 'SOFTBALL', 'SAILING', 'FROST', 'FOG', 'FLOOD', 'VOLLEYBALL']",7.0,False,"[5382, 2933, 807, 2520, 6215, 2294, 4066]",True,26713.0,categorized_16_7,,,,
64,reminder-random,,reminder,51.0,1443168.0,0.0-48.0,pilot,21,opt-rems-full,debugibM81:debugfnWxH,False,"['ENTRANCE', 'FISHING', 'CLOSET', 'SAILING']","['FISHING', 'CLOSET', 'SAILING']","['VANILLA', 'SUGAR', 'LOBBY', 'GINGER', 'FOG']","['VANILLA', 'ATTIC', 'SUGAR', 'ENTRANCE', 'FISHING', 'LOBBY', 'CLOSET', 'GINGER', 'SAGE', 'RAIN', 'SOFTBALL', 'SAILING', 'FROST', 'FOG', 'FLOOD', 'VOLLEYBALL']",3.0,False,"[3054, 6741, 5921, 4646]",,,categorized_16_7,ENTRANCE,3000.0,,
65,text-recall,,text-recall,54.0,1551569.0,0.0-51.0,pilot,21,opt-rems-full,debugibM81:debugfnWxH,False,"['BASEMENT', 'RIDGE', 'RIVER', 'POUND', 'POND', 'SWIMMING', 'GRAPE', 'ROOF', 'CELING', 'CELLAR']","['BASEMENT', 'RIDGE', 'RIVER', 'POND', 'SWIMMING', 'GRAPE', 'ROOF', 'CEILING', 'CELLAR']","['STRAWBERRY', 'RAVINE', 'GYMNASTICS', 'MANGO', 'CHERRY', 'BADMINTON', 'WRESTLING']","['STRAWBERRY', 'CEILING', 'ROOF', 'CELLAR', 'RAVINE', 'GYMNASTICS', 'MANGO', 'GRAPE', 'CHERRY', 'BASEMENT', 'POND', 'BADMINTON', 'SWIMMING', 'WRESTLING', 'RIVER', 'RIDGE']",9.0,False,"[11096, 2005, 2093, 6562, 3464, 5474, 4096, 6064, 3850, 3918]",True,55287.0,categorized_16_8,,,,
66,reminder-random,,reminder,55.0,1592794.0,0.0-52.0,pilot,21,opt-rems-full,debugibM81:debugfnWxH,False,"['BADMINTON', 'WRESTLING', 'SWIMMING', 'GYMNASTICS']","['WRESTLING', 'GYMNASTICS']","['STRAWBERRY', 'RAVINE', 'MANGO', 'CHERRY']","['STRAWBERRY', 'CEILING', 'ROOF', 'CELLAR', 'RAVINE', 'GYMNASTICS', 'MANGO', 'GRAPE', 'CHERRY', 'BASEMENT', 'POND', 'BADMINTON', 'SWIMMING', 'WRESTLING', 'RIVER', 'RIDGE']",2.0,False,"[4088, 5018, 2891, 6762]",,,categorized_16_8,BADMINTON,3000.0,,
67,text-recall,,text-recall,58.0,1697456.0,0.0-55.0,pilot,21,opt-rems-full,debugibM81:debugfnWxH,False,"['DESTROYER', 'BALL', 'HORNET', 'STEAMBOAT', 'SEEDS', 'WORM', 'HOSE', 'TANKER', 'KITE', 'WASP', 'CLIPPERS', 'PUZZLE']","['DESTROYER', 'BALL', 'HORNET', 'STEAMBOAT', 'SEEDS', 'WORM', 'HOSE', 'TANKER', 'KITE', 'WASP', 'CLIPPERS', 'PUZZLE']","['SCHOONER', 'BUCKET', 'BLOCKS', 'BUTTERFLY']","['HORNET', 'BALL', 'SCHOONER', 'BUCKET', 'WASP', 'KITE', 'TANKER', 'HOSE', 'WORM', 'BLOCKS', 'BUTTERFLY', 'STEAMBOAT', 'DESTROYER', 'SEEDS', 'PUZZLE', 'CLIPPERS']",12.0,False,"[16968, 2422, 2855, 3463, 2727, 2068, 2299, 2432, 2558, 3269, 5432, 1911]",True,50035.0,categorized_16_3,,,,
68,reminder-worst,,reminder,59.0,1743935.0,0.0-56.0,pilot,21,opt-rems-full,debugibM81:debugfnWxH,False,"['BUCKET', 'BUTTERFLY']",['BUTTERFLY'],"['SCHOONER', 'BLOCKS']","['HORNET', 'BALL', 'SCHOONER', 'BUCKET', 'WASP', 'KITE', 'TANKER', 'HOSE', 'WORM', 'BLOCKS', 'BUTTERFLY', 'STEAMBOAT', 'DESTROYER', 'SEEDS', 'PUZZLE', 'CLIPPERS']",1.0,False,"[3540, 7092]",,,categorized_16_3,BUCKET,3000.0,,
69,text-recall,,text-recall,62.0,1850989.0,0.0-59.0,pilot,21,opt-rems-full,debugibM81:debugfnWxH,False,"['BULLETIN', 'SOUL', 'PUNK', 'OPERA', 'HAWK', 'CRANE', 'SUIT', 'OWL', 'NOTE', 'JEANS', 'ALTERNATIVE', 'NOTE', 'ESSAY']","['BULLETIN', 'SOUL', 'PUNK', 'OPERA', 'HAWK', 'CRANE', 'SUIT', 'OWL', 'NOTE', 'JEANS', 'ALTERNATIVE', 'ESSAY']","['ROBE', 'PIGEON', 'BOXERS', 'PAMPHLET']","['ALTERNATIVE', 'OWL', 'NOTE', 'ESSAY', 'SUIT', 'ROBE', 'PIGEON', 'HAWK', 'CRANE', 'PUNK', 'JEANS', 'BOXERS', 'PAMPHLET', 'SOUL', 'OPERA', 'BULLETIN']",12.0,False,"[6407, 1284, 1420, 1956, 1826, 2104, 2310, 1305, 1464, 2338, 18113, 2115, 3279]",True,50323.0,categorized_16_9,,,,
70,reminder-best,,reminder,63.0,1897303.0,0.0-60.0,pilot,21,opt-rems-full,debugibM81:debugfnWxH,False,"['PIGEON', 'ROBE']",['ROBE'],"['BOXERS', 'PAMPHLET']","['ALTERNATIVE', 'OWL', 'NOTE', 'ESSAY', 'SUIT', 'ROBE', 'PIGEON', 'HAWK', 'CRANE', 'PUNK', 'JEANS', 'BOXERS', 'PAMPHLET', 'SOUL', 'OPERA', 'BULLETIN']",1.0,False,"[2975, 6959]",,,categorized_16_9,PIGEON,3000.0,,
71,text-recall,,text-recall,66.0,1996932.0,0.0-63.0,pilot,21,opt-rems-full,debugibM81:debugfnWxH,False,"['AXE', 'AXE', 'BALLET', 'BUFFALO', 'WING', 'CAMEL', 'BALLROOM', 'ROOM', 'WALTZ', 'PIG', 'SCREW', 'LEVEL', 'WALLS', 'LIZARD']","['AXE', 'BALLET', 'BUFFALO', 'WING', 'CAMEL', 'BALLROOM', 'ROOM', 'WALTZ', 'PIG', 'SCREW', 'LEVEL', 'WALLS', 'LIZARD']","['KITCHEN', 'TANGO', 'BOLT']","['BALLET', 'BUFFALO', 'PIG', 'KITCHEN', 'TANGO', 'LIZARD', 'SCREW', 'ROOM', 'WALTZ', 'BOLT', 'LEVEL', 'WING', 'BALLROOM', 'CAMEL', 'WALLS', 'AXE']",13.0,False,"[2266, 2363, 2102, 3090, 1474, 2149, 3480, 1468, 2301, 1774, 3677, 9087, 2569, 4387]",True,44195.0,categorized_16_2,,,,
72,reminder-worst,,reminder,67.0,2049319.0,0.0-64.0,pilot,21,opt-rems-full,debugibM81:debugfnWxH,False,['BOLT'],[],"['KITCHEN', 'TANGO']","['BALLET', 'BUFFALO', 'PIG', 'KITCHEN', 'TANGO', 'LIZARD', 'SCREW', 'ROOM', 'WALTZ', 'BOLT', 'LEVEL', 'WING', 'BALLROOM', 'CAMEL', 'WALLS', 'AXE']",0.0,False,[1090],,,categorized_16_2,BOLT,3000.0,,
73,text-recall,,text-recall,70.0,2163018.0,0.0-67.0,pilot,21,opt-rems-full,debugibM81:debugfnWxH,False,"['STREAM', 'VOLCANO', 'TSUNISM', 'MONSOON', 'LAKE', 'GALE', 'STEAM', 'HARP', 'SOLAR', 'WATER', 'PLATEAU']","['STREAM', 'VOLCANO', 'MONSOON', 'LAKE', 'GALE', 'STEAM', 'HARP', 'SOLAR', 'WATER', 'PLATEAU']","['CLARINET', 'ACCORDION', 'HARMONICA', 'CLOUDS', 'TSUNAMI', 'NUCLEAR']","['VOLCANO', 'CLARINET', 'ACCORDION', 'HARP', 'SOLAR', 'STEAM', 'GALE', 'HARMONICA', 'CLOUDS', 'TSUNAMI', 'MONSOON', 'NUCLEAR', 'LAKE', 'WATER', 'PLATEAU', 'STREAM']",10.0,False,"[5250, 9748, 6551, 2405, 2181, 1778, 2274, 2450, 2457, 3868, 7862]",True,53743.0,categorized_16_6,,,,
74,reminder-random,,reminder,71.0,2205912.0,0.0-68.0,pilot,21,opt-rems-full,debugibM81:debugfnWxH,False,['ACCORDIAN'],[],"['CLARINET', 'HARMONICA', 'CLOUDS', 'TSUNAMI', 'NUCLEAR']","['VOLCANO', 'CLARINET', 'ACCORDION', 'HARP', 'SOLAR', 'STEAM', 'GALE', 'HARMONICA', 'CLOUDS', 'TSUNAMI', 'MONSOON', 'NUCLEAR', 'LAKE', 'WATER', 'PLATEAU', 'STREAM']",0.0,False,[2912],,,categorized_16_6,ACCORDION,3000.0,,
75,text-recall,,text-recall,74.0,2296943.0,0.0-71.0,pilot,21,opt-rems-full,debugibM81:debugfnWxH,False,"['SHARK', 'TIE', 'BELT', 'DESK', 'OTTOMAN', 'CATFISH', 'LAMP', 'CLOTH', 'SKIRT', 'CABIENT', 'FELT']","['SHARK', 'TIE', 'BELT', 'DESK', 'OTTOMAN', 'CATFISH', 'LAMP', 'CLOTH', 'SKIRT', 'CABINET', 'FELT']","['VELVET', 'DRESS', 'HERRING', 'LEATHER', 'CARP']","['CABINET', 'CLOTH', 'SKIRT', 'DESK', 'BELT', 'OTTOMAN', 'CATFISH', 'VELVET', 'LAMP', 'DRESS', 'FELT', 'HERRING', 'LEATHER', 'CARP', 'TIE', 'SHARK']",11.0,False,"[2211, 1670, 4250, 1177, 2944, 2358, 1952, 5719, 2464, 4602, 3784]",True,35741.0,categorized_16_1,,,,
76,reminder-worst,,reminder,75.0,2357763.0,0.0-72.0,pilot,21,opt-rems-full,debugibM81:debugfnWxH,False,"['LEATHE', 'LEATHER', 'OTTOMAN', 'HERRING']",['HERRING'],"['VELVET', 'DRESS', 'CARP']","['CABINET', 'CLOTH', 'SKIRT', 'DESK', 'BELT', 'OTTOMAN', 'CATFISH', 'VELVET', 'LAMP', 'DRESS', 'FELT', 'HERRING', 'LEATHER', 'CARP', 'TIE', 'SHARK']",1.0,False,"[2002, 1711, 18055, 5764]",,,categorized_16_1,LEATHER,3000.0,,
77,total-points,,,,,,,,,debugibM81:debugfnWxH,,,,,,,,,,,,,,debugibM81:debugfnWxH,114.0
78,survey-text,"{""Q0"":""631bec0b4644d71b626240eb""}",survey-text,0.0,2996.0,0.0-0.0,pilot,123,opt-rems-full,debugVZopp:debug1p2JW,,,,,,,,,,,,,,,
79,text-recall,,text-recall,30.0,698198.0,0.0-27.0,pilot,123,opt-rems-full,debugVZopp:debug1p2JW,False,"['LACROSSE', 'HELICOPTER', 'MOSQUITO', 'VAN', 'SUNSHINE', 'HELICOPTER', 'VAN', 'BANDMINTON']","['LACROSSE', 'HELICOPTER', 'MOSQUITO', 'VAN', 'SUNSHINE', 'BADMINTON']","['BUTTERFLY', 'BEETLE', 'SWIMMING', 'GYMNASTICS', 'DROUGHT', 'STREETCAR', 'SNOW', 'WORM', 'BOAT', 'FOG']","['LACROSSE', 'HELICOPTER', 'MOSQUITO', 'VAN', 'SUNSHINE', 'BUTTERFLY', 'BEETLE', 'SWIMMING', 'GYMNASTICS', 'DROUGHT', 'STREETCAR', 'SNOW', 'WORM', 'BADMINTON', 'BOAT', 'FOG']",6.0,False,"[2917, 2096, 2417, 950, 3363, 8917, 3293, 26590]",True,56526.0,categorized_16_9,,,,
80,reminder-random,,reminder,31.0,738139.0,0.0-28.0,pilot,123,opt-rems-full,debugVZopp:debug1p2JW,False,"['BOAT', 'STREETCAR', 'VAN']",['STREETCAR'],"['BUTTERFLY', 'BEETLE', 'SWIMMING', 'GYMNASTICS', 'DROUGHT', 'SNOW', 'WORM', 'FOG']","['LACROSSE', 'HELICOPTER', 'MOSQUITO', 'VAN', 'SUNSHINE', 'BUTTERFLY', 'BEETLE', 'SWIMMING', 'GYMNASTICS', 'DROUGHT', 'STREETCAR', 'SNOW', 'WORM', 'BADMINTON', 'BOAT', 'FOG']",1.0,False,"[2352, 8790, 4815]",,,categorized_16_9,BOAT,3000.0,,
81,text-recall,,text-recall,34.0,848411.0,0.0-31.0,pilot,123,opt-rems-full,debugVZopp:debug1p2JW,False,"['SKA', 'PALACE', 'ROBE', 'BUNGALOW', 'CRIMSON', 'SCARLET', 'BELT', 'INDIGO', 'HUT']","['SKA', 'PALACE', 'ROBE', 'BUNGALOW', 'CRIMSON', 'SCARLET', 'BELT', 'INDIGO', 'HUT']","['OPERA', 'JACKET', 'DORMITORY', 'GRAY', 'SHORTS', 'TECHNO', 'INSTRUMENTAL']","['BELT', 'CRIMSON', 'INDIGO', 'SCARLET', 'OPERA', 'JACKET', 'DORMITORY', 'GRAY', 'SHORTS', 'TECHNO', 'INSTRUMENTAL', 'HUT', 'SKA', 'PALACE', 'ROBE', 'BUNGALOW']",9.0,False,"[1573, 2292, 889, 6279, 2990, 3146, 5487, 5834, 10713]",True,51650.0,categorized_16_1,,,,
82,reminder-random,,reminder,35.0,893364.0,0.0-32.0,pilot,123,opt-rems-full,debugVZopp:debug1p2JW,False,"['TECHNO', 'INSTRUMENTAL', 'GRAY']","['INSTRUMENTAL', 'GRAY']","['OPERA', 'JACKET', 'DORMITORY', 'SHORTS']","['BELT', 'CRIMSON', 'INDIGO', 'SCARLET', 'OPERA', 'JACKET', 'DORMITORY', 'GRAY', 'SHORTS', 'TECHNO', 'INSTRUMENTAL', 'HUT', 'SKA', 'PALACE', 'ROBE', 'BUNGALOW']",2.0,False,"[2684, 5001, 3737]",,,categorized_16_1,TECHNO,3000.0,,
83,text-recall,,text-recall,38.0,1012289.0,0.0-35.0,pilot,123,opt-rems-full,debugVZopp:debug1p2JW,False,"['SKIING', 'EUCALYPTUS', 'WILLOW', 'CEDAR', 'ELM', 'BOWLING', 'SEA', 'VALCANO', 'VOLCANO', 'RUGBY']","['SKIING', 'EUCALYPTUS', 'WILLOW', 'CEDAR', 'ELM', 'BOWLING', 'SEA', 'VOLCANO', 'RUGBY']","['TAXI', 'DESERT', 'JET', 'OCEAN', 'SAILING', 'WAGON', 'MOTORCYCLE']","['SKIING', 'TAXI', 'DESERT', 'JET', 'ELM', 'EUCALYPTUS', 'WILLOW', 'BOWLING', 'SEA', 'OCEAN', 'SAILING', 'RUGBY', 'VOLCANO', 'WAGON', 'CEDAR', 'MOTORCYCLE']",9.0,False,"[2345, 7005, 1434, 1820, 1223, 3209, 974, 3220, 3374, 22911]",True,56982.0,categorized_16_10,,,,
84,reminder-best,,reminder,39.0,1051864.0,0.0-36.0,pilot,123,opt-rems-full,debugVZopp:debug1p2JW,False,"['WAGON', 'MOTORCYCLE', 'SAILBOAT', 'OCEAN']","['MOTORCYCLE', 'OCEAN']","['TAXI', 'DESERT', 'JET', 'SAILING']","['SKIING', 'TAXI', 'DESERT', 'JET', 'ELM', 'EUCALYPTUS', 'WILLOW', 'BOWLING', 'SEA', 'OCEAN', 'SAILING', 'RUGBY', 'VOLCANO', 'WAGON', 'CEDAR', 'MOTORCYCLE']",2.0,False,"[2504, 15836, 7144, 6881]",,,categorized_16_10,WAGON,3000.0,,
85,text-recall,,text-recall,42.0,1169482.0,0.0-39.0,pilot,123,opt-rems-full,debugVZopp:debug1p2JW,False,"['HILL', 'VALLEY', 'HAWK', 'VIOLA', 'CLARINET', 'MONSOON', 'WIND', 'PIGEON', 'VALLEY', 'EARTHQUAKE', 'GORGE', 'BANJO', 'FIDDLE']","['HILL', 'VALLEY', 'HAWK', 'VIOLA', 'CLARINET', 'MONSOON', 'WIND', 'PIGEON', 'EARTHQUAKE', 'GORGE', 'BANJO', 'FIDDLE']","['SPARROW', 'RIVER', 'CRANE', 'BLIZZARD']","['HILL', 'FIDDLE', 'WIND', 'VALLEY', 'SPARROW', 'GORGE', 'EARTHQUAKE', 'BANJO', 'PIGEON', 'VIOLA', 'MONSOON', 'RIVER', 'CLARINET', 'HAWK', 'CRANE', 'BLIZZARD']",12.0,False,"[2212, 1477, 1844, 2363, 3697, 4603, 2866, 3601, 4686, 2931, 4798, 3218, 6888]",True,57954.0,categorized_16_8,,,,
86,reminder-random,,reminder,43.0,1208261.0,0.0-40.0,pilot,123,opt-rems-full,debugVZopp:debug1p2JW,False,"['RIVER', 'HAWK']",[],"['SPARROW', 'CRANE', 'BLIZZARD']","['HILL', 'FIDDLE', 'WIND', 'VALLEY', 'SPARROW', 'GORGE', 'EARTHQUAKE', 'BANJO', 'PIGEON', 'VIOLA', 'MONSOON', 'RIVER', 'CLARINET', 'HAWK', 'CRANE', 'BLIZZARD']",0.0,False,"[2061, 2489]",,,categorized_16_8,RIVER,3000.0,,
87,text-recall,,text-recall,46.0,1348309.0,0.0-43.0,pilot,123,opt-rems-full,debugVZopp:debug1p2JW,False,"['NINTENDO', 'ALTELOPE', 'BLUES', 'SYMPHONY', 'KITE', 'MOUSE', 'PUZZLE', 'ALTERNATIVE', 'AMBIGUOUS', 'KITE', 'SEEDS', 'ELEPHANT', 'TECHNO']","['ANTELOPE', 'BLUES', 'SYMPHONY', 'KITE', 'MOUSE', 'PUZZLE', 'ALTERNATIVE', 'SEEDS', 'ELEPHANT']","['BLOCKS', 'PITCHFORK', 'BUCKET', 'POP', 'GOAT', 'CLIPPERS', 'NINTENDO']","['SYMPHONY', 'KITE', 'SEEDS', 'BLOCKS', 'PITCHFORK', 'BUCKET', 'BLUES', 'ELEPHANT', 'POP', 'GOAT', 'PUZZLE', 'MOUSE', 'CLIPPERS', 'ALTERNATIVE', 'ANTELOPE', 'NINTENDO']",9.0,False,"[2933, 3302, 3332, 2892, 1790, 3557, 3254, 10397, 7103, 10748, 2113, 3791, 11130]",True,67728.0,categorized_16_5,,,,
88,reminder-random,,reminder,47.0,1377016.0,0.0-44.0,pilot,123,opt-rems-full,debugVZopp:debug1p2JW,False,"['PITCHFORK', 'MOUSE', 'ELEPHANT', 'PUZZLE', 'SEEDS', 'SYMPHONY', 'ORCHESTRA']",[],"['BLOCKS', 'BUCKET', 'POP', 'GOAT', 'CLIPPERS', 'NINTENDO']","['SYMPHONY', 'KITE', 'SEEDS', 'BLOCKS', 'PITCHFORK', 'BUCKET', 'BLUES', 'ELEPHANT', 'POP', 'GOAT', 'PUZZLE', 'MOUSE', 'CLIPPERS', 'ALTERNATIVE', 'ANTELOPE', 'NINTENDO']",0.0,False,"[4958, 1242, 2398, 1701, 1139, 4876, 3602]",,,categorized_16_5,PITCHFORK,3000.0,,
89,text-recall,,text-recall,50.0,1509193.0,0.0-47.0,pilot,123,opt-rems-full,debugVZopp:debug1p2JW,False,"['COW', 'TYPHOON', 'PAMPLET', 'TYPHOON', 'COW', 'BULLETIN', 'RAIN', 'TROUSERS', 'HAT', 'JACKET', 'FROST', 'PAPER', 'LETTER']","['COW', 'TYPHOON', 'PAMPHLET', 'BULLETIN', 'RAIN', 'TROUSERS', 'HAT', 'FROST', 'PAPER', 'LETTER']","['BOXERS', 'TURTLE', 'CLOUDS', 'FOX', 'DEER', 'SLIP']","['LETTER', 'TROUSERS', 'PAPER', 'FROST', 'COW', 'PAMPHLET', 'BOXERS', 'TURTLE', 'HAT', 'BULLETIN', 'TYPHOON', 'CLOUDS', 'FOX', 'DEER', 'SLIP', 'RAIN']",10.0,False,"[1361, 3285, 1758, 9219, 3609, 3461, 6916, 10963, 2406, 3745, 7201, 1217, 3280]",True,76007.0,categorized_16_7,,,,
90,reminder-best,,reminder,51.0,1535665.0,0.0-48.0,pilot,123,opt-rems-full,debugVZopp:debug1p2JW,False,"['FOX', 'COW', 'PAMPHLET', 'BULLETIN', 'TYPHOON', 'COW']",[],"['BOXERS', 'TURTLE', 'CLOUDS', 'DEER', 'SLIP']","['LETTER', 'TROUSERS', 'PAPER', 'FROST', 'COW', 'PAMPHLET', 'BOXERS', 'TURTLE', 'HAT', 'BULLETIN', 'TYPHOON', 'CLOUDS', 'FOX', 'DEER', 'SLIP', 'RAIN']",0.0,False,"[2222, 1287, 5096, 2857, 3264, 1628]",,,categorized_16_7,FOX,3000.0,,
91,text-recall,,text-recall,54.0,1655493.0,0.0-51.0,pilot,123,opt-rems-full,debugVZopp:debug1p2JW,False,"['DESTROYER', 'COD', 'PLATEAU', 'HAIL', 'VALLEY', 'RAVINE', 'BARGE', 'COD', 'FERRY']","['DESTROYER', 'COD', 'PLATEAU', 'HAIL', 'RAVINE', 'BARGE', 'FERRY']","['ISLAND', 'GLACIER', 'THUNDER', 'CYCLONE', 'TSUNAMI', 'HERRING', 'PERCH', 'CARP', 'SLOOP']","['RAVINE', 'ISLAND', 'HAIL', 'GLACIER', 'FERRY', 'THUNDER', 'CYCLONE', 'TSUNAMI', 'HERRING', 'BARGE', 'PERCH', 'CARP', 'SLOOP', 'COD', 'PLATEAU', 'DESTROYER']",7.0,False,"[2520, 849, 15997, 3556, 1697, 3223, 7219, 2276, 18053]",True,64978.0,categorized_16_2,,,,
92,reminder-best,,reminder,55.0,1686961.0,0.0-52.0,pilot,123,opt-rems-full,debugVZopp:debug1p2JW,False,"['CYCLONE', 'TSUNAMI', 'WAVE']",['TSUNAMI'],"['ISLAND', 'GLACIER', 'THUNDER', 'HERRING', 'PERCH', 'CARP', 'SLOOP']","['RAVINE', 'ISLAND', 'HAIL', 'GLACIER', 'FERRY', 'THUNDER', 'CYCLONE', 'TSUNAMI', 'HERRING', 'BARGE', 'PERCH', 'CARP', 'SLOOP', 'COD', 'PLATEAU', 'DESTROYER']",1.0,False,"[3074, 5396, 1486]",,,categorized_16_2,CYCLONE,3000.0,,
93,text-recall,,text-recall,58.0,1790686.0,0.0-55.0,pilot,123,opt-rems-full,debugVZopp:debug1p2JW,False,"['BLUEGRASS', 'EDITORIAL', 'PENGUIN', 'PUNK', 'NOVEL', 'FENCING', 'FOLK', 'CANARY']","['BLUEGRASS', 'EDITORIAL', 'PENGUIN', 'PUNK', 'NOVEL', 'FENCING', 'FOLK', 'CANARY']","['VOLLEYBALL', 'MANUSCRIPT', 'GOSPEL', 'HANDBALL', 'TRACK', 'SWAN', 'BOOKLET', 'PARROT']","['PUNK', 'NOVEL', 'FENCING', 'BLUEGRASS', 'VOLLEYBALL', 'MANUSCRIPT', 'PENGUIN', 'FOLK', 'GOSPEL', 'HANDBALL', 'TRACK', 'CANARY', 'SWAN', 'BOOKLET', 'PARROT', 'EDITORIAL']",8.0,False,"[3254, 2244, 1874, 1431, 2055, 2857, 14623, 4314]",True,47461.0,categorized_16_11,,,,
94,reminder-worst,,reminder,59.0,1839906.0,0.0-56.0,pilot,123,opt-rems-full,debugVZopp:debug1p2JW,False,"['TRACK', 'PAPER', 'VOLLEYBALL']",['VOLLEYBALL'],"['MANUSCRIPT', 'GOSPEL', 'HANDBALL', 'SWAN', 'BOOKLET', 'PARROT']","['PUNK', 'NOVEL', 'FENCING', 'BLUEGRASS', 'VOLLEYBALL', 'MANUSCRIPT', 'PENGUIN', 'FOLK', 'GOSPEL', 'HANDBALL', 'TRACK', 'CANARY', 'SWAN', 'BOOKLET', 'PARROT', 'EDITORIAL']",1.0,False,"[3550, 33110, 4140]",,,categorized_16_11,TRACK,3000.0,,
95,text-recall,,text-recall,62.0,1952733.0,0.0-59.0,pilot,123,opt-rems-full,debugVZopp:debug1p2JW,False,"['POPLAR', 'EVERGREEN', 'CROW', 'OWL', 'PEACOCK', 'NUCLEAR', 'SOLAR', 'KITCHEN', 'BATHROOM', 'LOBBY', 'CROW', 'OWL', 'PENGUIN', 'ATTIC']","['POPLAR', 'EVERGREEN', 'CROW', 'OWL', 'PEACOCK', 'NUCLEAR', 'SOLAR', 'KITCHEN', 'BATHROOM', 'LOBBY', 'ATTIC']","['MAPLE', 'OIL', 'STEAM', 'VULTURE', 'REDWOOD']","['NUCLEAR', 'EVERGREEN', 'KITCHEN', 'MAPLE', 'OIL', 'PEACOCK', 'SOLAR', 'BATHROOM', 'LOBBY', 'STEAM', 'VULTURE', 'ATTIC', 'OWL', 'REDWOOD', 'POPLAR', 'CROW']",11.0,False,"[2579, 2675, 3057, 1819, 2227, 2525, 3966, 2924, 2321, 2032, 6555, 1437, 4550, 5791]",True,52562.0,categorized_16_4,,,,
96,reminder-worst,,reminder,63.0,1996778.0,0.0-60.0,pilot,123,opt-rems-full,debugVZopp:debug1p2JW,False,"['STEAM', 'AIR', 'CROW', 'NUCLEAR']",[],"['MAPLE', 'OIL', 'VULTURE', 'REDWOOD']","['NUCLEAR', 'EVERGREEN', 'KITCHEN', 'MAPLE', 'OIL', 'PEACOCK', 'SOLAR', 'BATHROOM', 'LOBBY', 'STEAM', 'VULTURE', 'ATTIC', 'OWL', 'REDWOOD', 'POPLAR', 'CROW']",0.0,False,"[2491, 3555, 4944, 15131]",,,categorized_16_4,STEAM,3000.0,,
97,text-recall,,text-recall,66.0,2112705.0,0.0-63.0,pilot,123,opt-rems-full,debugVZopp:debug1p2JW,False,"['STRAWBERRY', 'MANGO', 'GRAPE', 'VANILLA', 'VELVET', 'BALLROOM', 'SWING', 'SALSA', 'GRAPE', 'LEATHER', 'FELT', 'CLOTH', 'SAGE', 'GARLIC']","['STRAWBERRY', 'MANGO', 'GRAPE', 'VANILLA', 'VELVET', 'BALLROOM', 'SWING', 'SALSA', 'LEATHER', 'FELT', 'CLOTH', 'SAGE']","['BALLET', 'CHERRY', 'SUGAR', 'GINGER']","['LEATHER', 'CLOTH', 'GRAPE', 'BALLET', 'VANILLA', 'VELVET', 'CHERRY', 'FELT', 'BALLROOM', 'SAGE', 'SUGAR', 'SWING', 'SALSA', 'GINGER', 'MANGO', 'STRAWBERRY']",12.0,False,"[2538, 1496, 1472, 2095, 1794, 2262, 1435, 1727, 6091, 1456, 2956, 5518, 15334, 12151]",True,61233.0,categorized_16_0,,,,
98,reminder-best,,reminder,67.0,2173530.0,0.0-64.0,pilot,123,opt-rems-full,debugVZopp:debug1p2JW,False,"['BALLET', 'PARROT']",[],"['CHERRY', 'SUGAR', 'GINGER']","['LEATHER', 'CLOTH', 'GRAPE', 'BALLET', 'VANILLA', 'VELVET', 'CHERRY', 'FELT', 'BALLROOM', 'SAGE', 'SUGAR', 'SWING', 'SALSA', 'GINGER', 'MANGO', 'STRAWBERRY']",0.0,False,"[3268, 13217]",,,categorized_16_0,BALLET,3000.0,,
99,text-recall,,text-recall,70.0,2282550.0,0.0-67.0,pilot,123,opt-rems-full,debugVZopp:debug1p2JW,False,"['CABINET', 'DESK', 'KEYBOARD', 'GOLF', 'SOFTBALL', 'HARD', 'HARP', 'ACCORDION', 'LAMP', 'CABINET', 'CLARINET']","['CABINET', 'DESK', 'KEYBOARD', 'GOLF', 'SOFTBALL', 'HARP', 'ACCORDION', 'LAMP']","['OTTOMAN', 'DRILL', 'LEVEL', 'DIVING', 'AXE', 'HARMONICA', 'WRESTLING', 'PENCIL']","['KEYBOARD', 'ACCORDION', 'OTTOMAN', 'HARP', 'LAMP', 'CABINET', 'DRILL', 'LEVEL', 'DIVING', 'AXE', 'HARMONICA', 'SOFTBALL', 'WRESTLING', 'PENCIL', 'GOLF', 'DESK']",8.0,False,"[2323, 979, 1910, 1191, 3828, 1215, 1955, 3190, 5465, 4964, 6692]",True,47468.0,categorized_16_3,,,,
100,reminder-worst,,reminder,71.0,2331748.0,0.0-68.0,pilot,123,opt-rems-full,debugVZopp:debug1p2JW,False,"['HARMONICA', 'DIVING', 'KEYBOARD']",['DIVING'],"['OTTOMAN', 'DRILL', 'LEVEL', 'AXE', 'WRESTLING', 'PENCIL']","['KEYBOARD', 'ACCORDION', 'OTTOMAN', 'HARP', 'LAMP', 'CABINET', 'DRILL', 'LEVEL', 'DIVING', 'AXE', 'HARMONICA', 'SOFTBALL', 'WRESTLING', 'PENCIL', 'GOLF', 'DESK']",1.0,False,"[5869, 10631, 14317]",,,categorized_16_3,HARMONICA,3000.0,,
101,text-recall,,text-recall,74.0,2463223.0,0.0-71.0,pilot,123,opt-rems-full,debugVZopp:debug1p2JW,False,"['ROOF', 'BATTLESHIP', 'SCHOONER', 'YATCH', 'TROLLEY', 'OWL', 'DOVE', 'FALCON', 'CHICKEN', 'FOWL', 'JAZZ', 'PIGEON', 'SHIP', 'CART', 'SUBWAY', 'TANKER', 'OTTOMAN']","['ROOF', 'BATTLESHIP', 'SCHOONER', 'TROLLEY', 'DOVE', 'FALCON', 'CHICKEN', 'CART', 'SUBWAY', 'TANKER']","['ELEVATOR', 'PORCH', 'JEEP', 'FINCH', 'YACHT', 'CEILING']","['FALCON', 'DOVE', 'CHICKEN', 'SCHOONER', 'TANKER', 'CART', 'ELEVATOR', 'PORCH', 'SUBWAY', 'JEEP', 'FINCH', 'TROLLEY', 'YACHT', 'CEILING', 'BATTLESHIP', 'ROOF']",10.0,False,"[1534, 3090, 2676, 3087, 1724, 1418, 1510, 2021, 4802, 1046, 9130, 11394, 8807, 5477, 2932, 3998, 5448]",True,77055.0,categorized_16_6,,,,
102,reminder-worst,,reminder,75.0,2490212.0,0.0-72.0,pilot,123,opt-rems-full,debugVZopp:debug1p2JW,False,"['ELEVATOR', 'LEVEL', 'DRILL']",[],"['PORCH', 'JEEP', 'FINCH', 'YACHT', 'CEILING']","['FALCON', 'DOVE', 'CHICKEN', 'SCHOONER', 'TANKER', 'CART', 'ELEVATOR', 'PORCH', 'SUBWAY', 'JEEP', 'FINCH', 'TROLLEY', 'YACHT', 'CEILING', 'BATTLESHIP', 'ROOF']",0.0,False,"[3746, 5562, 3538]",,,categorized_16_6,ELEVATOR,3000.0,,
103,total-points,,,,,,,,,debugVZopp:debug1p2JW,,,,,,,,,,,,,,debugVZopp:debug1p2JW,126.0
104,survey-text,"{""Q0"":""60fed4a51b41974258558dbe""}",survey-text,0.0,3133.0,0.0-0.0,pilot,90,opt-rems-full,debugxLQjr:debugBXZz8,,,,,,,,,,,,,,,
105,text-recall,,text-recall,27.0,720559.0,0.0-27.0,pilot,90,opt-rems-full,debugxLQjr:debugBXZz8,False,"['WALTZ', 'SALSA', 'TANGO', 'CELLAR', 'BASEMENT', 'CLARINET', 'VIOLA', 'HARMONICA', 'ACCORDIAN']","['WALTZ', 'SALSA', 'TANGO', 'CELLAR', 'BASEMENT', 'CLARINET', 'VIOLA', 'HARMONICA', 'ACCORDION']","['BALLET', 'BULLETIN', 'WING', 'BOOKLET', 'EDITORIAL', 'ATTIC', 'DIGEST']","['BALLET', 'ACCORDION', 'TANGO', 'BULLETIN', 'CLARINET', 'WING', 'HARMONICA', 'CELLAR', 'SALSA', 'VIOLA', 'BOOKLET', 'EDITORIAL', 'WALTZ', 'ATTIC', 'BASEMENT', 'DIGEST']",9.0,False,"[2302, 2401, 1675, 1518, 1496, 1651, 1385, 1819, 2465]",True,17399.0,categorized_16_2,,,,
106,reminder-worst,,reminder,28.0,799912.0,0.0-28.0,pilot,90,opt-rems-full,debugxLQjr:debugBXZz8,False,"['BALLET', 'EDITORIAL', 'ATTIC']","['EDITORIAL', 'ATTIC']","['BULLETIN', 'WING', 'BOOKLET', 'DIGEST']","['BALLET', 'ACCORDION', 'TANGO', 'BULLETIN', 'CLARINET', 'WING', 'HARMONICA', 'CELLAR', 'SALSA', 'VIOLA', 'BOOKLET', 'EDITORIAL', 'WALTZ', 'ATTIC', 'BASEMENT', 'DIGEST']",2.0,False,"[1758, 4887, 17660]",,,categorized_16_2,BALLET,3000.0,,
107,text-recall,,text-recall,31.0,879698.0,0.0-31.0,pilot,90,opt-rems-full,debugxLQjr:debugBXZz8,False,"['CLOSET', 'HILL', 'PEACOCK', 'BUFFALO', 'FINCH', 'PEACOCK', 'ENTRANCE', 'RIDGE']","['CLOSET', 'HILL', 'PEACOCK', 'BUFFALO', 'FINCH', 'ENTRANCE', 'RIDGE']","['LAKE', 'ROOM', 'PENGUIN', 'FOUNDATION', 'WOLF', 'FALCON', 'CAMEL', 'DONKEY', 'OCEAN']","['LAKE', 'ROOM', 'PENGUIN', 'RIDGE', 'FOUNDATION', 'WOLF', 'ENTRANCE', 'BUFFALO', 'FALCON', 'FINCH', 'CLOSET', 'HILL', 'CAMEL', 'DONKEY', 'OCEAN', 'PEACOCK']",7.0,False,"[1657, 1218, 1735, 2043, 2174, 2118, 4994, 6170]",True,26480.0,categorized_16_11,,,,
108,reminder-best,,reminder,32.0,949954.0,0.0-32.0,pilot,90,opt-rems-full,debugxLQjr:debugBXZz8,False,"['CAMEL', 'DONKEY', 'ROOM']","['DONKEY', 'ROOM']","['LAKE', 'PENGUIN', 'FOUNDATION', 'WOLF', 'FALCON', 'OCEAN']","['LAKE', 'ROOM', 'PENGUIN', 'RIDGE', 'FOUNDATION', 'WOLF', 'ENTRANCE', 'BUFFALO', 'FALCON', 'FINCH', 'CLOSET', 'HILL', 'CAMEL', 'DONKEY', 'OCEAN', 'PEACOCK']",2.0,False,"[1547, 1260, 14620]",,,categorized_16_11,CAMEL,3000.0,,
109,text-recall,,text-recall,35.0,1032748.0,0.0-35.0,pilot,90,opt-rems-full,debugxLQjr:debugBXZz8,False,"['BOAT', 'FERRY', 'RAVINE', 'POND', 'ENCYCLOPEDIA', 'NOTE', 'CLIFF']","['BOAT', 'RAVINE', 'POND', 'ENCYCLOPEDIA', 'NOTE', 'CLIFF']","['FENCING', 'PAMPHLET', 'TROLLEY', 'ESSAY', 'RUGBY', 'WATERFALL', 'CARRIAGE', 'BADMINTON', 'HELICOPTER', 'LACROSSE']","['POND', 'FENCING', 'RAVINE', 'CLIFF', 'PAMPHLET', 'TROLLEY', 'ESSAY', 'RUGBY', 'WATERFALL', 'CARRIAGE', 'NOTE', 'BADMINTON', 'HELICOPTER', 'LACROSSE', 'ENCYCLOPEDIA', 'BOAT']",6.0,False,"[1380, 2879, 1439, 1224, 8696, 1088, 2861]",True,30242.0,categorized_16_9,,,,
110,reminder-best,,reminder,36.0,1099167.0,0.0-36.0,pilot,90,opt-rems-full,debugxLQjr:debugBXZz8,False,"['BADMINTON', 'TROLLY']",[],"['FENCING', 'PAMPHLET', 'TROLLEY', 'ESSAY', 'RUGBY', 'WATERFALL', 'CARRIAGE', 'HELICOPTER', 'LACROSSE']","['POND', 'FENCING', 'RAVINE', 'CLIFF', 'PAMPHLET', 'TROLLEY', 'ESSAY', 'RUGBY', 'WATERFALL', 'CARRIAGE', 'NOTE', 'BADMINTON', 'HELICOPTER', 'LACROSSE', 'ENCYCLOPEDIA', 'BOAT']",0.0,False,"[3936, 16254]",,,categorized_16_9,BADMINTON,3000.0,,
111,text-recall,,text-recall,39.0,1206314.0,0.0-39.0,pilot,90,opt-rems-full,debugxLQjr:debugBXZz8,False,"['DESK', 'VOLLEYBALL', 'GYMNASTICS', 'BUREAU', 'HOCKEY', 'FISHING', 'OIL', 'VELVET', 'RAYON']","['DESK', 'VOLLEYBALL', 'GYMNASTICS', 'BUREAU', 'FISHING', 'OIL', 'VELVET', 'RAYON']","['CABINET', 'BOWLING', 'WATER', 'ELECTRICITY', 'LAMP', 'LEATHER', 'NUCLEAR', 'CLOTH']","['DESK', 'OIL', 'VELVET', 'CABINET', 'VOLLEYBALL', 'BOWLING', 'WATER', 'RAYON', 'ELECTRICITY', 'LAMP', 'LEATHER', 'NUCLEAR', 'GYMNASTICS', 'BUREAU', 'CLOTH', 'FISHING']",8.0,False,"[1410, 5348, 2276, 4896, 4887, 4448, 13960, 7212, 2315]",True,51198.0,categorized_16_1,,,,
112,reminder-best,,reminder,40.0,1251936.0,0.0-40.0,pilot,90,opt-rems-full,debugxLQjr:debugBXZz8,False,['ELECTRICITY'],[],"['CABINET', 'BOWLING', 'WATER', 'LAMP', 'LEATHER', 'NUCLEAR', 'CLOTH']","['DESK', 'OIL', 'VELVET', 'CABINET', 'VOLLEYBALL', 'BOWLING', 'WATER', 'RAYON', 'ELECTRICITY', 'LAMP', 'LEATHER', 'NUCLEAR', 'GYMNASTICS', 'BUREAU', 'CLOTH', 'FISHING']",0.0,False,[2592],,,categorized_16_1,ELECTRICITY,3000.0,,
113,text-recall,,text-recall,43.0,1353103.0,0.0-43.0,pilot,90,opt-rems-full,debugxLQjr:debugBXZz8,False,"['TRACK', 'BUCKET', 'FIR', 'EVERGREEN', 'SKA', 'GOSPEL']","['TRACK', 'BUCKET', 'FIR', 'EVERGREEN', 'SKA', 'GOSPEL']","['EUCALYPTUS', 'SAILING', 'WILLOW', 'SKIING', 'SYMPHONY', 'TECHNO', 'HOSE', 'PITCHFORK', 'CLIPPERS', 'BOXING']","['EUCALYPTUS', 'SAILING', 'WILLOW', 'SKIING', 'SYMPHONY', 'TECHNO', 'HOSE', 'PITCHFORK', 'CLIPPERS', 'SKA', 'GOSPEL', 'FIR', 'BUCKET', 'EVERGREEN', 'BOXING', 'TRACK']",6.0,False,"[1517, 1617, 876, 1498, 830, 2424]",True,20944.0,categorized_16_7,,,,
114,reminder-worst,,reminder,44.0,1430846.0,0.0-44.0,pilot,90,opt-rems-full,debugxLQjr:debugBXZz8,False,"['EUCALYPTUS', 'FIR', 'HOSE', 'CLIPPERS', 'SKIING']","['HOSE', 'CLIPPERS', 'SKIING']","['SAILING', 'WILLOW', 'SYMPHONY', 'TECHNO', 'PITCHFORK', 'BOXING']","['EUCALYPTUS', 'SAILING', 'WILLOW', 'SKIING', 'SYMPHONY', 'TECHNO', 'HOSE', 'PITCHFORK', 'CLIPPERS', 'SKA', 'GOSPEL', 'FIR', 'BUCKET', 'EVERGREEN', 'BOXING', 'TRACK']",3.0,False,"[5200, 4884, 6350, 4491, 43984]",,,categorized_16_7,EUCALYPTUS,3000.0,,
115,text-recall,,text-recall,47.0,1521067.0,0.0-47.0,pilot,90,opt-rems-full,debugxLQjr:debugBXZz8,False,"['STRAWBERRY', 'JEEP', 'REPORT', 'MANUSCRIPT', 'PLUM', 'FIG', 'SCRIPT']","['STRAWBERRY', 'JEEP', 'REPORT', 'MANUSCRIPT', 'PLUM', 'FIG']","['TRACTOR', 'CHERRY', 'JET', 'JOURNAL', 'MOTORCYCLE', 'JEANS', 'NOVEL', 'SLIP', 'TROUSERS', 'SKIRT']","['TRACTOR', 'FIG', 'CHERRY', 'MANUSCRIPT', 'PLUM', 'JET', 'JOURNAL', 'MOTORCYCLE', 'JEANS', 'NOVEL', 'SLIP', 'TROUSERS', 'STRAWBERRY', 'JEEP', 'SKIRT', 'REPORT']",6.0,False,"[2084, 1056, 1278, 2079, 1518, 1986, 9299]",True,34894.0,categorized_16_6,,,,
116,reminder-best,,reminder,48.0,1582795.0,0.0-48.0,pilot,90,opt-rems-full,debugxLQjr:debugBXZz8,False,['SLIP'],[],"['TRACTOR', 'CHERRY', 'JET', 'JOURNAL', 'MOTORCYCLE', 'JEANS', 'NOVEL', 'TROUSERS', 'SKIRT']","['TRACTOR', 'FIG', 'CHERRY', 'MANUSCRIPT', 'PLUM', 'JET', 'JOURNAL', 'MOTORCYCLE', 'JEANS', 'NOVEL', 'SLIP', 'TROUSERS', 'STRAWBERRY', 'JEEP', 'SKIRT', 'REPORT']",0.0,False,[1865],,,categorized_16_6,SLIP,3000.0,,
117,text-recall,,text-recall,51.0,1683250.0,0.0-51.0,pilot,90,opt-rems-full,debugxLQjr:debugBXZz8,False,"['BROWN', 'GREY', 'SOUL', 'PIG', 'PUNK', 'REGGAE']","['BROWN', 'SOUL', 'PIG', 'PUNK', 'REGGAE']","['SUGAR', 'VANILLA', 'INDIGO', 'GINGER', 'GOAT', 'MAROON', 'INSTRUMENTAL', 'RAT', 'GRAY', 'MOUSE', 'SAGE']","['SUGAR', 'VANILLA', 'INDIGO', 'REGGAE', 'GINGER', 'GOAT', 'MAROON', 'PIG', 'PUNK', 'INSTRUMENTAL', 'RAT', 'BROWN', 'GRAY', 'SOUL', 'MOUSE', 'SAGE']",5.0,False,"[1318, 1049, 1065, 3505, 3734, 1580]",True,44989.0,categorized_16_3,,,,
118,reminder-worst,,reminder,52.0,1734915.0,0.0-52.0,pilot,90,opt-rems-full,debugxLQjr:debugBXZz8,False,"['MOUSE', 'RAT']",['RAT'],"['SUGAR', 'VANILLA', 'INDIGO', 'GINGER', 'GOAT', 'MAROON', 'INSTRUMENTAL', 'GRAY', 'SAGE']","['SUGAR', 'VANILLA', 'INDIGO', 'REGGAE', 'GINGER', 'GOAT', 'MAROON', 'PIG', 'PUNK', 'INSTRUMENTAL', 'RAT', 'BROWN', 'GRAY', 'SOUL', 'MOUSE', 'SAGE']",1.0,False,"[2400, 815]",,,categorized_16_3,MOUSE,3000.0,,
119,text-recall,,text-recall,55.0,1809178.0,0.0-55.0,pilot,90,opt-rems-full,debugxLQjr:debugBXZz8,False,"['SCHOONER', 'SLOOP', 'BELT', 'SHORTS', 'DRESS', 'SKIRT']","['SCHOONER', 'SLOOP', 'BELT', 'SHORTS', 'DRESS']","['GORGE', 'STEAMBOAT', 'BARGE', 'KITE', 'SUIT', 'FAULT', 'BALL', 'CANYON', 'BLOCKS', 'ISLAND', 'NINTENDO']","['GORGE', 'STEAMBOAT', 'BARGE', 'KITE', 'SUIT', 'FAULT', 'BALL', 'CANYON', 'SLOOP', 'BLOCKS', 'SHORTS', 'BELT', 'ISLAND', 'DRESS', 'NINTENDO', 'SCHOONER']",5.0,False,"[2174, 1316, 3611, 1508, 1217, 1367]",True,16512.0,categorized_16_4,,,,
120,reminder-random,,reminder,56.0,1889273.0,0.0-56.0,pilot,90,opt-rems-full,debugxLQjr:debugBXZz8,False,['SUIT'],[],"['GORGE', 'STEAMBOAT', 'BARGE', 'KITE', 'FAULT', 'BALL', 'CANYON', 'BLOCKS', 'ISLAND', 'NINTENDO']","['GORGE', 'STEAMBOAT', 'BARGE', 'KITE', 'SUIT', 'FAULT', 'BALL', 'CANYON', 'SLOOP', 'BLOCKS', 'SHORTS', 'BELT', 'ISLAND', 'DRESS', 'NINTENDO', 'SCHOONER']",0.0,False,[1576],,,categorized_16_4,SUIT,3000.0,,
121,text-recall,,text-recall,59.0,1956264.0,0.0-59.0,pilot,90,opt-rems-full,debugxLQjr:debugBXZz8,False,"['HORNET', 'WASP', 'BEAR', 'ELEPHANT', 'HUT', 'BUNGALOW', 'DRILL']","['HORNET', 'WASP', 'BEAR', 'ELEPHANT', 'HUT', 'BUNGALOW', 'DRILL']","['PENCIL', 'LEVEL', 'ELK', 'COTTAGE', 'RABBIT', 'BEETLE', 'RULER', 'HOTEL', 'MOSQUITO']","['PENCIL', 'DRILL', 'LEVEL', 'ELK', 'COTTAGE', 'RABBIT', 'BUNGALOW', 'BEETLE', 'RULER', 'WASP', 'HOTEL', 'HORNET', 'BEAR', 'ELEPHANT', 'HUT', 'MOSQUITO']",7.0,False,"[1636, 1480, 1892, 1676, 843, 1660, 2118]",True,12558.0,categorized_16_0,,,,
122,reminder-worst,,reminder,60.0,2040412.0,0.0-60.0,pilot,90,opt-rems-full,debugxLQjr:debugBXZz8,False,"['PENCIL', 'RULER']",['RULER'],"['LEVEL', 'ELK', 'COTTAGE', 'RABBIT', 'BEETLE', 'HOTEL', 'MOSQUITO']","['PENCIL', 'DRILL', 'LEVEL', 'ELK', 'COTTAGE', 'RABBIT', 'BUNGALOW', 'BEETLE', 'RULER', 'WASP', 'HOTEL', 'HORNET', 'BEAR', 'ELEPHANT', 'HUT', 'MOSQUITO']",1.0,False,"[1857, 1290]",,,categorized_16_0,PENCIL,3000.0,,
123,text-recall,,text-recall,63.0,2127498.0,0.0-63.0,pilot,90,opt-rems-full,debugxLQjr:debugBXZz8,False,"['CEDAR', 'BICYCLE', 'REDWOOD', 'BLUEGRASS', 'SUBWAY', 'DESTROYER', 'SUBWAY']","['CEDAR', 'BICYCLE', 'REDWOOD', 'BLUEGRASS', 'SUBWAY', 'DESTROYER']","['OPERA', 'BIRCH', 'BEECH', 'STREETCAR', 'ALTERNATIVE', 'POP', 'TANKER', 'BATTLESHIP', 'TRAILER', 'YACHT']","['SUBWAY', 'OPERA', 'BIRCH', 'BEECH', 'STREETCAR', 'REDWOOD', 'ALTERNATIVE', 'POP', 'TANKER', 'DESTROYER', 'BATTLESHIP', 'BLUEGRASS', 'TRAILER', 'YACHT', 'BICYCLE', 'CEDAR']",6.0,False,"[1397, 3471, 4439, 1974, 1178, 1643, 8520]",True,32955.0,categorized_16_8,,,,
124,reminder-random,,reminder,64.0,2191633.0,0.0-64.0,pilot,90,opt-rems-full,debugxLQjr:debugBXZz8,False,"['OPERA', 'ALTERNATIVE', 'REDWOOD', 'YACHT']","['ALTERNATIVE', 'YACHT']","['BIRCH', 'BEECH', 'STREETCAR', 'POP', 'TANKER', 'BATTLESHIP', 'TRAILER']","['SUBWAY', 'OPERA', 'BIRCH', 'BEECH', 'STREETCAR', 'REDWOOD', 'ALTERNATIVE', 'POP', 'TANKER', 'DESTROYER', 'BATTLESHIP', 'BLUEGRASS', 'TRAILER', 'YACHT', 'BICYCLE', 'CEDAR']",2.0,False,"[1557, 3966, 24483, 5971]",,,categorized_16_8,OPERA,3000.0,,
125,text-recall,,text-recall,67.0,2273012.0,0.0-67.0,pilot,90,opt-rems-full,debugxLQjr:debugBXZz8,False,"['THUNDER', 'HARP', 'FIDDLE', 'BANJO', 'COD', 'CARP', 'TUNA', 'SHEEP', 'MOOSE']","['THUNDER', 'HARP', 'FIDDLE', 'BANJO', 'COD', 'CARP', 'TUNA', 'SHEEP', 'MOOSE']","['HAIL', 'WIND', 'MONSOON', 'LIZARD', 'SHARK', 'SQUIRREL', 'KEYBOARD']","['COD', 'CARP', 'HAIL', 'BANJO', 'WIND', 'MOOSE', 'TUNA', 'SHEEP', 'MONSOON', 'LIZARD', 'SHARK', 'SQUIRREL', 'KEYBOARD', 'FIDDLE', 'HARP', 'THUNDER']",9.0,False,"[2051, 1016, 2116, 1406, 1045, 1259, 1324, 976, 1106]",True,20775.0,categorized_16_5,,,,
126,reminder-random,,reminder,68.0,2349121.0,0.0-68.0,pilot,90,opt-rems-full,debugxLQjr:debugBXZz8,False,"['SQUIRREL', 'HARP']",[],"['HAIL', 'WIND', 'MONSOON', 'LIZARD', 'SHARK', 'KEYBOARD']","['COD', 'CARP', 'HAIL', 'BANJO', 'WIND', 'MOOSE', 'TUNA', 'SHEEP', 'MONSOON', 'LIZARD', 'SHARK', 'SQUIRREL', 'KEYBOARD', 'FIDDLE', 'HARP', 'THUNDER']",0.0,False,"[4322, 5549]",,,categorized_16_5,SQUIRREL,3000.0,,
127,text-recall,,text-recall,71.0,2434772.0,0.0-71.0,pilot,90,opt-rems-full,debugxLQjr:debugBXZz8,False,"['ELEVATOR', 'TRAIN', 'HAT', 'KITCHEN', 'WALLS', 'SWIMMING', 'DIVING', 'GOLF', 'SOFTBALL']","['ELEVATOR', 'TRAIN', 'HAT', 'KITCHEN', 'WALLS', 'SWIMMING', 'DIVING', 'GOLF', 'SOFTBALL']","['TAXI', 'WAGON', 'CART', 'JACKET', 'COAT', 'PORCH', 'ROBE']","['TAXI', 'WALLS', 'HAT', 'KITCHEN', 'WAGON', 'CART', 'JACKET', 'SOFTBALL', 'SWIMMING', 'COAT', 'DIVING', 'GOLF', 'PORCH', 'ROBE', 'ELEVATOR', 'TRAIN']",9.0,False,"[3885, 1434, 964, 1596, 998, 3698, 1305, 2532, 2180]",True,26466.0,categorized_16_10,,,,
128,reminder-random,,reminder,72.0,2504911.0,0.0-72.0,pilot,90,opt-rems-full,debugxLQjr:debugBXZz8,False,"['CART', 'JACKET', 'COAT', 'ROBE']","['JACKET', 'COAT', 'ROBE']","['TAXI', 'WAGON', 'PORCH']","['TAXI', 'WALLS', 'HAT', 'KITCHEN', 'WAGON', 'CART', 'JACKET', 'SOFTBALL', 'SWIMMING', 'COAT', 'DIVING', 'GOLF', 'PORCH', 'ROBE', 'ELEVATOR', 'TRAIN']",3.0,False,"[1272, 1317, 1053, 1027]",,,categorized_16_10,CART,3000.0,,
129,total-points,,,,,,,,,debugxLQjr:debugBXZz8,,,,,,,,,,,,,,debugxLQjr:debugBXZz8,98.0
130,survey-text,"{""Q0"":""60b97c4a76d841451e007b9d""}",survey-text,0.0,9713.0,0.0-0.0,pilot,34,opt-rems-full,debugkvYNw:debugiSo0p,,,,,,,,,,,,,,,
131,text-recall,,text-recall,25.0,593828.0,0.0-27.0,pilot,34,opt-rems-full,debugkvYNw:debugiSo0p,False,"['MOSQUITO', 'CARP', 'WASP', 'BUTTERFLY', 'CARP', 'CATFISH', 'SHARK', 'ELEPHANT', 'WOLF', 'WASP', 'HORNET']","['MOSQUITO', 'CARP', 'WASP', 'BUTTERFLY', 'CATFISH', 'SHARK', 'ELEPHANT', 'WOLF', 'HORNET']","['WALTZ', 'BALLROOM', 'TANGO', 'BALLET', 'RABBIT', 'HERRING', 'GOAT']","['ELEPHANT', 'CARP', 'WALTZ', 'BALLROOM', 'TANGO', 'BALLET', 'RABBIT', 'WASP', 'BUTTERFLY', 'SHARK', 'HERRING', 'HORNET', 'WOLF', 'GOAT', 'CATFISH', 'MOSQUITO']",9.0,False,"[3073, 2682, 1337, 2615, 1852, 1274, 1478, 1439, 1416, 16960, 9765]",True,56391.0,categorized_16_0,,,,
132,reminder-best,,reminder,26.0,634083.0,0.0-28.0,pilot,34,opt-rems-full,debugkvYNw:debugiSo0p,False,"['TANGO', 'WALTZ', 'BALLET', 'BALLROOM']","['WALTZ', 'BALLET', 'BALLROOM']","['RABBIT', 'HERRING', 'GOAT']","['ELEPHANT', 'CARP', 'WALTZ', 'BALLROOM', 'TANGO', 'BALLET', 'RABBIT', 'WASP', 'BUTTERFLY', 'SHARK', 'HERRING', 'HORNET', 'WOLF', 'GOAT', 'CATFISH', 'MOSQUITO']",3.0,False,"[1480, 1705, 1376, 1242]",,,categorized_16_0,TANGO,3000.0,,
133,text-recall,,text-recall,29.0,742830.0,0.0-31.0,pilot,34,opt-rems-full,debugkvYNw:debugiSo0p,False,"['VANILLA', 'SCREW', 'AXE', 'CLOSET', 'WALLS', 'WALL', 'FLOOR', 'SCREW', 'MOUSE', 'RABBIT', 'MOOSE', 'SAGE', 'SQUIRREL', 'SUGAR']","['VANILLA', 'SCREW', 'AXE', 'CLOSET', 'WALLS', 'FLOOR', 'MOUSE', 'MOOSE', 'SAGE', 'SQUIRREL', 'SUGAR']","['ROOM', 'RULER', 'RAT', 'GINGER', 'DRILL']","['CLOSET', 'MOOSE', 'FLOOR', 'ROOM', 'SAGE', 'SCREW', 'MOUSE', 'RULER', 'AXE', 'RAT', 'GINGER', 'SUGAR', 'WALLS', 'SQUIRREL', 'DRILL', 'VANILLA']",11.0,False,"[1977, 1282, 2036, 4243, 1751, 1199, 1347, 1154, 3134, 1369, 1938, 4382, 5222, 3181]",True,47245.0,categorized_16_3,,,,
134,reminder-random,,reminder,30.0,792254.0,0.0-32.0,pilot,34,opt-rems-full,debugkvYNw:debugiSo0p,False,[],[],"['ROOM', 'RAT', 'GINGER', 'DRILL']","['CLOSET', 'MOOSE', 'FLOOR', 'ROOM', 'SAGE', 'SCREW', 'MOUSE', 'RULER', 'AXE', 'RAT', 'GINGER', 'SUGAR', 'WALLS', 'SQUIRREL', 'DRILL', 'VANILLA']",0.0,False,[],,,categorized_16_3,RULER,3000.0,,
135,text-recall,,text-recall,33.0,898234.0,0.0-35.0,pilot,34,opt-rems-full,debugkvYNw:debugiSo0p,False,"['TAXI', 'CARRIAGE', 'GYMNASTICS', 'BOXING', 'GOLF', 'FENCING', 'TYPHOON', 'BLIZZARD', 'FROST', 'THUNDER']","['TAXI', 'CARRIAGE', 'GYMNASTICS', 'BOXING', 'GOLF', 'FENCING', 'TYPHOON', 'BLIZZARD', 'FROST', 'THUNDER']","['PARROT', 'VULTURE', 'PENGUIN', 'TROLLEY', 'TRACTOR', 'DUCK']","['PARROT', 'VULTURE', 'PENGUIN', 'BLIZZARD', 'THUNDER', 'GYMNASTICS', 'TYPHOON', 'TAXI', 'TROLLEY', 'FROST', 'BOXING', 'TRACTOR', 'FENCING', 'GOLF', 'DUCK', 'CARRIAGE']",10.0,False,"[2953, 1800, 2343, 2690, 1468, 1058, 1612, 1600, 2725, 2034]",True,39678.0,categorized_16_11,,,,
136,reminder-best,,reminder,34.0,955345.0,0.0-36.0,pilot,34,opt-rems-full,debugkvYNw:debugiSo0p,False,"['VULTURE', 'PARROT']",['PARROT'],"['PENGUIN', 'TROLLEY', 'TRACTOR', 'DUCK']","['PARROT', 'VULTURE', 'PENGUIN', 'BLIZZARD', 'THUNDER', 'GYMNASTICS', 'TYPHOON', 'TAXI', 'TROLLEY', 'FROST', 'BOXING', 'TRACTOR', 'FENCING', 'GOLF', 'DUCK', 'CARRIAGE']",1.0,False,"[2854, 917]",,,categorized_16_11,VULTURE,3000.0,,
137,text-recall,,text-recall,37.0,1054342.0,0.0-39.0,pilot,34,opt-rems-full,debugkvYNw:debugiSo0p,False,"['BELT', 'ELF', 'ELK', 'BEAR', 'TIGER', 'EDITORIAL', 'MANUSCRIPT', 'JEANS', 'JACKET', 'BELT', 'DRESS']","['BELT', 'ELK', 'BEAR', 'TIGER', 'EDITORIAL', 'MANUSCRIPT', 'JEANS', 'JACKET', 'DRESS']","['BIRCH', 'NOVEL', 'CEDAR', 'FIR', 'DIGEST', 'POPLAR', 'TURTLE']","['JEANS', 'BIRCH', 'NOVEL', 'EDITORIAL', 'JACKET', 'CEDAR', 'ELK', 'FIR', 'DIGEST', 'POPLAR', 'DRESS', 'MANUSCRIPT', 'BEAR', 'TIGER', 'TURTLE', 'BELT']",9.0,False,"[2011, 933, 1883, 1164, 1227, 2455, 2625, 1121, 1408, 1854, 3379]",True,42954.0,categorized_16_9,,,,
138,reminder-random,,reminder,38.0,1108581.0,0.0-40.0,pilot,34,opt-rems-full,debugkvYNw:debugiSo0p,False,"['BIRCH', 'POPLAR', 'ELM', 'CEDAR']","['POPLAR', 'CEDAR']","['NOVEL', 'FIR', 'DIGEST', 'TURTLE']","['JEANS', 'BIRCH', 'NOVEL', 'EDITORIAL', 'JACKET', 'CEDAR', 'ELK', 'FIR', 'DIGEST', 'POPLAR', 'DRESS', 'MANUSCRIPT', 'BEAR', 'TIGER', 'TURTLE', 'BELT']",2.0,False,"[1804, 1757, 28951, 7768]",,,categorized_16_9,BIRCH,3000.0,,
139,text-recall,,text-recall,41.0,1217230.0,0.0-43.0,pilot,34,opt-rems-full,debugkvYNw:debugiSo0p,False,"['SHOOENER', 'STEAMBOAT', 'BATTLESHIP', 'BASEMENT', 'CELLAR', 'ENTRANCE', 'BASEMENT', 'ROOF', 'FOX', 'DEER', 'ANTELOPE', 'DONKEY', 'FINCH', 'CANARY', 'FALCON']","['STEAMBOAT', 'BATTLESHIP', 'BASEMENT', 'CELLAR', 'ENTRANCE', 'ROOF', 'FOX', 'DEER', 'ANTELOPE', 'DONKEY', 'FINCH', 'CANARY', 'FALCON']","['BARGE', 'SWAN', 'SCHOONER']","['ANTELOPE', 'CELLAR', 'DONKEY', 'FINCH', 'DEER', 'ROOF', 'CANARY', 'FALCON', 'BARGE', 'FOX', 'BASEMENT', 'BATTLESHIP', 'STEAMBOAT', 'ENTRANCE', 'SWAN', 'SCHOONER']",13.0,False,"[4202, 2520, 2021, 2538, 2004, 1325, 3013, 2346, 3331, 1475, 2300, 2107, 1029, 1480, 10811]",True,50667.0,categorized_16_8,,,,
140,reminder-best,,reminder,42.0,1263227.0,0.0-44.0,pilot,34,opt-rems-full,debugkvYNw:debugiSo0p,False,[],[],"['BARGE', 'SWAN']","['ANTELOPE', 'CELLAR', 'DONKEY', 'FINCH', 'DEER', 'ROOF', 'CANARY', 'FALCON', 'BARGE', 'FOX', 'BASEMENT', 'BATTLESHIP', 'STEAMBOAT', 'ENTRANCE', 'SWAN', 'SCHOONER']",0.0,False,[],,,categorized_16_8,SCHOONER,3000.0,,
141,text-recall,,text-recall,45.0,1379571.0,0.0-47.0,pilot,34,opt-rems-full,debugkvYNw:debugiSo0p,False,"['FIG', 'LIME', 'BANJO', 'VIOLA', 'ACCORDIAN', 'FIDDLE', 'OIL', 'SOLAR', 'FIG']","['FIG', 'LIME', 'BANJO', 'VIOLA', 'ACCORDION', 'FIDDLE', 'OIL', 'SOLAR']","['ELECTRICITY', 'RUGBY', 'MANGO', 'BADMINTON', 'STEAM', 'CHERRY', 'HANDBALL', 'BOWLING']","['BANJO', 'ELECTRICITY', 'LIME', 'FIDDLE', 'RUGBY', 'OIL', 'MANGO', 'VIOLA', 'BADMINTON', 'STEAM', 'CHERRY', 'HANDBALL', 'BOWLING', 'ACCORDION', 'SOLAR', 'FIG']",8.0,False,"[1445, 954, 5166, 1412, 1806, 3572, 6419, 2291, 7222]",True,41960.0,categorized_16_2,,,,
142,reminder-worst,,reminder,46.0,1434179.0,0.0-48.0,pilot,34,opt-rems-full,debugkvYNw:debugiSo0p,False,['ELECTRICITY'],[],"['RUGBY', 'MANGO', 'BADMINTON', 'STEAM', 'CHERRY', 'HANDBALL', 'BOWLING']","['BANJO', 'ELECTRICITY', 'LIME', 'FIDDLE', 'RUGBY', 'OIL', 'MANGO', 'VIOLA', 'BADMINTON', 'STEAM', 'CHERRY', 'HANDBALL', 'BOWLING', 'ACCORDION', 'SOLAR', 'FIG']",0.0,False,[2645],,,categorized_16_2,ELECTRICITY,3000.0,,
143,text-recall,,text-recall,49.0,1545236.0,0.0-51.0,pilot,34,opt-rems-full,debugkvYNw:debugiSo0p,False,"['CEILING', 'KITCHEN', 'PORCH', 'WAGON', 'ELEVATOR', 'HAIL', 'TSUNAMI', 'CLOUD', 'PLANE', 'PAPER', 'WRITING', 'JOURNAL', 'ESSAY', 'THUNDER', 'EARTHQUAKE']","['CEILING', 'KITCHEN', 'PORCH', 'WAGON', 'ELEVATOR', 'HAIL', 'TSUNAMI', 'CLOUDS', 'PAPER', 'JOURNAL', 'ESSAY', 'EARTHQUAKE']","['JET', 'BOOKLET', 'VAN', 'SUBWAY']","['EARTHQUAKE', 'JOURNAL', 'WAGON', 'TSUNAMI', 'JET', 'BOOKLET', 'PAPER', 'VAN', 'HAIL', 'KITCHEN', 'ELEVATOR', 'SUBWAY', 'CLOUDS', 'ESSAY', 'PORCH', 'CEILING']",12.0,False,"[1818, 1646, 1013, 5795, 3932, 2018, 2814, 5458, 918, 1797, 1169, 1635, 4082, 5167, 3556]",True,56591.0,categorized_16_7,,,,
144,reminder-worst,,reminder,50.0,1585106.0,0.0-52.0,pilot,34,opt-rems-full,debugkvYNw:debugiSo0p,False,[],[],"['JET', 'BOOKLET', 'SUBWAY']","['EARTHQUAKE', 'JOURNAL', 'WAGON', 'TSUNAMI', 'JET', 'BOOKLET', 'PAPER', 'VAN', 'HAIL', 'KITCHEN', 'ELEVATOR', 'SUBWAY', 'CLOUDS', 'ESSAY', 'PORCH', 'CEILING']",0.0,False,[],,,categorized_16_7,VAN,3000.0,,
145,text-recall,,text-recall,53.0,1703808.0,0.0-55.0,pilot,34,opt-rems-full,debugkvYNw:debugiSo0p,False,"['NOTE', 'SKA', 'ENCYCLOPEDIA', 'BUREAU', 'DESK', 'LAMP', 'WING', 'DESK', 'TECHNO', 'POP', 'OTTOMAN', 'OFFICE', 'BULLETIN']","['NOTE', 'SKA', 'ENCYCLOPEDIA', 'BUREAU', 'DESK', 'LAMP', 'WING', 'TECHNO', 'POP', 'OTTOMAN', 'BULLETIN']","['ATTIC', 'FOUNDATION', 'INSTRUMENTAL', 'LOBBY', 'REPORT']","['LAMP', 'BUREAU', 'POP', 'ENCYCLOPEDIA', 'DESK', 'ATTIC', 'FOUNDATION', 'SKA', 'INSTRUMENTAL', 'OTTOMAN', 'LOBBY', 'WING', 'REPORT', 'TECHNO', 'BULLETIN', 'NOTE']",11.0,False,"[1357, 636, 3193, 2064, 939, 1260, 1140, 4852, 7427, 5652, 1596, 14205, 8983]",True,59911.0,categorized_16_6,,,,
146,reminder-best,,reminder,54.0,1740861.0,0.0-56.0,pilot,34,opt-rems-full,debugkvYNw:debugiSo0p,False,[],[],"['ATTIC', 'INSTRUMENTAL', 'LOBBY', 'REPORT']","['LAMP', 'BUREAU', 'POP', 'ENCYCLOPEDIA', 'DESK', 'ATTIC', 'FOUNDATION', 'SKA', 'INSTRUMENTAL', 'OTTOMAN', 'LOBBY', 'WING', 'REPORT', 'TECHNO', 'BULLETIN', 'NOTE']",0.0,False,[],,,categorized_16_6,FOUNDATION,3000.0,,
147,text-recall,,text-recall,57.0,1879618.0,0.0-59.0,pilot,34,opt-rems-full,debugkvYNw:debugiSo0p,False,"['HAT', 'DROUGHT', 'RIDGE', 'OCEAN', 'FLOOD', 'SNOW', 'SLIP', 'GLACIER', 'HAT', 'SKIRT', 'ELM', 'MAPLE', 'EUCALYPTUS', 'REDWOOD', 'ISLAND']","['HAT', 'DROUGHT', 'RIDGE', 'OCEAN', 'FLOOD', 'SNOW', 'SLIP', 'GLACIER', 'SKIRT', 'ELM', 'MAPLE', 'EUCALYPTUS', 'REDWOOD', 'ISLAND']","['SUIT', 'LIGHTNING']","['SNOW', 'SUIT', 'SLIP', 'ELM', 'GLACIER', 'REDWOOD', 'LIGHTNING', 'SKIRT', 'OCEAN', 'ISLAND', 'MAPLE', 'EUCALYPTUS', 'FLOOD', 'DROUGHT', 'RIDGE', 'HAT']",14.0,False,"[1146, 1585, 1123, 1089, 1179, 832, 2797, 1559, 4068, 3956, 3484, 3006, 15341, 6723, 10243]",True,80036.0,categorized_16_10,,,,
148,reminder-random,,reminder,58.0,1906211.0,0.0-60.0,pilot,34,opt-rems-full,debugkvYNw:debugiSo0p,False,[],[],['LIGHTNING'],"['SNOW', 'SUIT', 'SLIP', 'ELM', 'GLACIER', 'REDWOOD', 'LIGHTNING', 'SKIRT', 'OCEAN', 'ISLAND', 'MAPLE', 'EUCALYPTUS', 'FLOOD', 'DROUGHT', 'RIDGE', 'HAT']",0.0,False,[],,,categorized_16_10,SUIT,3000.0,,
149,text-recall,,text-recall,61.0,2032505.0,0.0-63.0,pilot,34,opt-rems-full,debugkvYNw:debugiSo0p,False,"['ALTERNATIVE', 'SYMPHONY', 'REGGAE', 'BICYCLE', 'MOTORCYCLE', 'HAWK', 'OWL', 'LIZARD', 'BIBLE', 'GOSPEL', 'DUCK', 'FALCON']","['ALTERNATIVE', 'SYMPHONY', 'REGGAE', 'BICYCLE', 'MOTORCYCLE', 'HAWK', 'OWL', 'LIZARD', 'GOSPEL']","['CRANE', 'CROW', 'CAMEL', 'CART', 'SHEEP', 'JEEP', 'COW']","['BICYCLE', 'LIZARD', 'OWL', 'CRANE', 'HAWK', 'GOSPEL', 'CROW', 'CAMEL', 'CART', 'SHEEP', 'JEEP', 'SYMPHONY', 'REGGAE', 'MOTORCYCLE', 'COW', 'ALTERNATIVE']",9.0,False,"[1956, 2005, 1650, 3345, 3597, 5479, 5552, 1692, 7311, 4933, 22062, 7197]",True,69089.0,categorized_16_4,,,,
150,reminder-random,,reminder,62.0,2059949.0,0.0-64.0,pilot,34,opt-rems-full,debugkvYNw:debugiSo0p,False,[],[],"['CRANE', 'CROW', 'CART', 'SHEEP', 'JEEP', 'COW']","['BICYCLE', 'LIZARD', 'OWL', 'CRANE', 'HAWK', 'GOSPEL', 'CROW', 'CAMEL', 'CART', 'SHEEP', 'JEEP', 'SYMPHONY', 'REGGAE', 'MOTORCYCLE', 'COW', 'ALTERNATIVE']",0.0,False,[],,,categorized_16_4,CAMEL,3000.0,,
151,text-recall,,text-recall,65.0,2161635.0,0.0-67.0,pilot,34,opt-rems-full,debugkvYNw:debugiSo0p,False,"['KITE', 'SOIK', 'SOIL', 'PITCHFORK', 'BALL', 'BUCKET', 'SEEDS', 'BLUES', 'BLUEGRASS', 'FOLK', 'HARMONICA', 'KEYBOARD', 'CLARINET', 'PUNK']","['KITE', 'SOIL', 'PITCHFORK', 'BALL', 'BUCKET', 'SEEDS', 'BLUES', 'BLUEGRASS', 'FOLK', 'HARMONICA', 'KEYBOARD', 'CLARINET', 'PUNK']","['NINTENDO', 'BLOCKS', 'HARP']","['BLUES', 'HARMONICA', 'KEYBOARD', 'KITE', 'SOIL', 'BALL', 'NINTENDO', 'BLUEGRASS', 'CLARINET', 'PITCHFORK', 'BLOCKS', 'PUNK', 'BUCKET', 'SEEDS', 'HARP', 'FOLK']",13.0,False,"[1828, 954, 2285, 3153, 1768, 1954, 3594, 1349, 1922, 1789, 1975, 1686, 1584, 19495]",True,46547.0,categorized_16_5,,,,
152,reminder-worst,,reminder,66.0,2211608.0,0.0-68.0,pilot,34,opt-rems-full,debugkvYNw:debugiSo0p,False,[],[],"['NINTENDO', 'BLOCKS']","['BLUES', 'HARMONICA', 'KEYBOARD', 'KITE', 'SOIL', 'BALL', 'NINTENDO', 'BLUEGRASS', 'CLARINET', 'PITCHFORK', 'BLOCKS', 'PUNK', 'BUCKET', 'SEEDS', 'HARP', 'FOLK']",0.0,False,[],,,categorized_16_5,HARP,3000.0,,
153,text-recall,,text-recall,69.0,2355930.0,0.0-71.0,pilot,34,opt-rems-full,debugkvYNw:debugiSo0p,False,"['STREETCAR', 'TANKER', 'TRAIN', 'YACHT', 'BOAT', 'FERRY', 'SCARLET', 'CRIMSON', 'BROWN', 'GREY', 'GRAY', 'FELT', 'LINEN', 'CLOTH', 'HELICOPTER']","['STREETCAR', 'TANKER', 'TRAIN', 'YACHT', 'BOAT', 'FERRY', 'SCARLET', 'CRIMSON', 'BROWN', 'GRAY', 'FELT', 'LINEN', 'CLOTH', 'HELICOPTER']","['SLOOP', 'LEATHER']","['SCARLET', 'BROWN', 'FELT', 'BOAT', 'FERRY', 'HELICOPTER', 'YACHT', 'CRIMSON', 'CLOTH', 'SLOOP', 'LEATHER', 'LINEN', 'STREETCAR', 'GRAY', 'TANKER', 'TRAIN']",14.0,False,"[2369, 3768, 2357, 1143, 738, 1295, 1350, 1335, 833, 1362, 1236, 1134, 2763, 3195, 18387]",True,90000.0,categorized_16_1,,,,
154,reminder-none,,reminder,70.0,2356937.0,0.0-72.0,pilot,34,opt-rems-full,debugkvYNw:debugiSo0p,False,[],[],[],"['SCARLET', 'BROWN', 'FELT', 'BOAT', 'FERRY', 'HELICOPTER', 'YACHT', 'CRIMSON', 'CLOTH', 'SLOOP', 'LEATHER', 'LINEN', 'STREETCAR', 'GRAY', 'TANKER', 'TRAIN']",0.0,False,[],,,categorized_16_1,,0.0,,
155,total-points,,,,,,,,,debugkvYNw:debugiSo0p,,,,,,,,,,,,,,debugkvYNw:debugiSo0p,145.0
156,survey-text,"{""Q0"":""62e5efb1deb16d717c79fb9b""}",survey-text,0.0,1734.0,0.0-0.0,pilot,72,opt-rems-full,debugmmDZh:debugaL2Wg,,,,,,,,,,,,,,,
157,text-recall,,text-recall,25.0,612431.0,0.0-27.0,pilot,72,opt-rems-full,debugmmDZh:debugaL2Wg,False,"['ENCYCLOPEDIA', 'BIRTH', 'OAK', 'EVERGREEN', 'BUREAU', 'SOUL']","['ENCYCLOPEDIA', 'EVERGREEN', 'BUREAU', 'SOUL']","['CEDAR', 'DESK', 'JOURNAL', 'REPORT', 'EDITORIAL', 'OPERA', 'LAMP', 'BIRCH', 'CABINET', 'SKA', 'ALTERNATIVE', 'MAPLE']","['BUREAU', 'CEDAR', 'DESK', 'SOUL', 'JOURNAL', 'REPORT', 'EDITORIAL', 'OPERA', 'LAMP', 'EVERGREEN', 'BIRCH', 'CABINET', 'SKA', 'ALTERNATIVE', 'MAPLE', 'ENCYCLOPEDIA']",4.0,False,"[3577, 1041, 1653, 1267, 2082, 1112]",True,29418.0,categorized_16_6,,,,
158,reminder-best,,reminder,26.0,679465.0,0.0-28.0,pilot,72,opt-rems-full,debugmmDZh:debugaL2Wg,False,['CEDAR'],['CEDAR'],"['DESK', 'JOURNAL', 'REPORT', 'EDITORIAL', 'OPERA', 'BIRCH', 'CABINET', 'SKA', 'ALTERNATIVE', 'MAPLE']","['BUREAU', 'CEDAR', 'DESK', 'SOUL', 'JOURNAL', 'REPORT', 'EDITORIAL', 'OPERA', 'LAMP', 'EVERGREEN', 'BIRCH', 'CABINET', 'SKA', 'ALTERNATIVE', 'MAPLE', 'ENCYCLOPEDIA']",1.0,False,[5978],,,categorized_16_6,LAMP,3000.0,,
159,text-recall,,text-recall,29.0,759802.0,0.0-31.0,pilot,72,opt-rems-full,debugmmDZh:debugaL2Wg,False,"['MANSION', 'PALACE', 'TYPOON', 'MONSOON', 'HUT', 'MOSQUITO', 'BEETLE']","['MANSION', 'PALACE', 'TYPHOON', 'MONSOON', 'HUT', 'MOSQUITO', 'BEETLE']","['BUCKET', 'DROUGHT', 'WORM', 'SOIL', 'BUTTERFLY', 'CLIPPERS', 'FOG', 'SEEDS', 'HOTEL']","['PALACE', 'MOSQUITO', 'TYPHOON', 'BUCKET', 'BEETLE', 'HUT', 'DROUGHT', 'MONSOON', 'WORM', 'SOIL', 'BUTTERFLY', 'CLIPPERS', 'FOG', 'SEEDS', 'HOTEL', 'MANSION']",7.0,False,"[3022, 738, 1653, 1464, 768, 2795, 2782]",True,22828.0,categorized_16_4,,,,
160,reminder-worst,,reminder,30.0,833408.0,0.0-32.0,pilot,72,opt-rems-full,debugmmDZh:debugaL2Wg,False,"['SOIL', 'FOG', '']","['SOIL', 'FOG']","['BUCKET', 'DROUGHT', 'WORM', 'BUTTERFLY', 'CLIPPERS', 'SEEDS']","['PALACE', 'MOSQUITO', 'TYPHOON', 'BUCKET', 'BEETLE', 'HUT', 'DROUGHT', 'MONSOON', 'WORM', 'SOIL', 'BUTTERFLY', 'CLIPPERS', 'FOG', 'SEEDS', 'HOTEL', 'MANSION']",2.0,False,"[4301, 22406, 30849]",,,categorized_16_4,HOTEL,3000.0,,
161,text-recall,,text-recall,33.0,928563.0,0.0-35.0,pilot,72,opt-rems-full,debugmmDZh:debugaL2Wg,False,"['PLAIN', 'HILL', 'SUBWAY', 'TROLLEY', 'CARRAIGE']","['PLAIN', 'HILL', 'SUBWAY', 'TROLLEY', 'CARRIAGE']","['LOBBY', 'PORCH', 'ISLAND', 'CEILING', 'ELEPHANT', 'DEER', 'ATTIC', 'JET', 'GORGE', 'SQUIRREL', 'TURTLE']","['SUBWAY', 'CARRIAGE', 'LOBBY', 'PORCH', 'ISLAND', 'PLAIN', 'HILL', 'TROLLEY', 'CEILING', 'ELEPHANT', 'DEER', 'ATTIC', 'JET', 'GORGE', 'SQUIRREL', 'TURTLE']",5.0,False,"[3145, 622, 963, 1567, 1474]",True,39780.0,categorized_16_5,,,,
162,reminder-worst,,reminder,34.0,985204.0,0.0-36.0,pilot,72,opt-rems-full,debugmmDZh:debugaL2Wg,False,['TURTLE'],['TURTLE'],"['LOBBY', 'PORCH', 'CEILING', 'ELEPHANT', 'DEER', 'ATTIC', 'JET', 'GORGE', 'SQUIRREL']","['SUBWAY', 'CARRIAGE', 'LOBBY', 'PORCH', 'ISLAND', 'PLAIN', 'HILL', 'TROLLEY', 'CEILING', 'ELEPHANT', 'DEER', 'ATTIC', 'JET', 'GORGE', 'SQUIRREL', 'TURTLE']",1.0,False,[5923],,,categorized_16_5,ISLAND,3000.0,,
163,text-recall,,text-recall,37.0,1066756.0,0.0-39.0,pilot,72,opt-rems-full,debugmmDZh:debugaL2Wg,False,"['VELT', 'LINEN', 'BANJO', 'CLARINET', 'WATERFALL', 'FERRY', 'TANKER', 'VELVET']","['FELT', 'LINEN', 'BANJO', 'CLARINET', 'WATERFALL', 'FERRY', 'TANKER', 'VELVET']","['RIVER', 'CLIFF', 'LEATHER', 'BARGE', 'HARMONICA', 'YACHT', 'DESERT', 'VIOLA']","['RIVER', 'TANKER', 'CLIFF', 'LEATHER', 'CLARINET', 'BANJO', 'FERRY', 'BARGE', 'HARMONICA', 'LINEN', 'WATERFALL', 'YACHT', 'DESERT', 'VIOLA', 'VELVET', 'FELT']",8.0,False,"[2893, 1124, 2069, 2885, 1582, 814, 2219, 6579]",True,27854.0,categorized_16_0,,,,
164,reminder-random,,reminder,38.0,1135373.0,0.0-40.0,pilot,72,opt-rems-full,debugmmDZh:debugaL2Wg,False,['CLIFF'],['CLIFF'],"['RIVER', 'BARGE', 'HARMONICA', 'YACHT', 'DESERT', 'VIOLA']","['RIVER', 'TANKER', 'CLIFF', 'LEATHER', 'CLARINET', 'BANJO', 'FERRY', 'BARGE', 'HARMONICA', 'LINEN', 'WATERFALL', 'YACHT', 'DESERT', 'VIOLA', 'VELVET', 'FELT']",1.0,False,[43763],,,categorized_16_0,LEATHER,3000.0,,
165,text-recall,,text-recall,41.0,1234520.0,0.0-43.0,pilot,72,opt-rems-full,debugmmDZh:debugaL2Wg,False,"['RABBIT', 'ROSE', 'PUZZLE', 'SUGAR', 'NINTENDO', 'WOLF', 'SAGE']","['RABBIT', 'PUZZLE', 'SUGAR', 'WOLF', 'SAGE']","['ROBE', 'LIZARD', 'GINGER', 'BLOCKS', 'ELK', 'JEANS', 'BALL', 'NINTENDO', 'SLIP', 'DRESS', 'VANILLA']","['RABBIT', 'ROBE', 'PUZZLE', 'SUGAR', 'LIZARD', 'WOLF', 'GINGER', 'BLOCKS', 'ELK', 'JEANS', 'BALL', 'NINTENDO', 'SLIP', 'SAGE', 'DRESS', 'VANILLA']",5.0,False,"[2950, 516, 732, 1731, 1614, 1303, 21133]",False,40444.0,categorized_16_2,,,,
166,reminder-best,,reminder,42.0,1290569.0,0.0-44.0,pilot,72,opt-rems-full,debugmmDZh:debugaL2Wg,False,['ELK'],['ELK'],"['ROBE', 'LIZARD', 'BLOCKS', 'JEANS', 'BALL', 'NINTENDO', 'SLIP', 'DRESS', 'VANILLA']","['RABBIT', 'ROBE', 'PUZZLE', 'SUGAR', 'LIZARD', 'WOLF', 'GINGER', 'BLOCKS', 'ELK', 'JEANS', 'BALL', 'NINTENDO', 'SLIP', 'SAGE', 'DRESS', 'VANILLA']",1.0,False,[30927],,,categorized_16_2,GINGER,3000.0,,
167,text-recall,,text-recall,45.0,1389751.0,0.0-47.0,pilot,72,opt-rems-full,debugmmDZh:debugaL2Wg,False,"['BEAR', 'MOOSE', 'SWIMMING', 'PEACOCK', 'CAMEL', 'SPARROW', 'SAILING']","['BEAR', 'MOOSE', 'SWIMMING', 'PEACOCK', 'CAMEL', 'SPARROW', 'SAILING']","['DESTROYER', 'STEAMBOAT', 'COW', 'FISHING', 'PARROT', 'SOFTBALL', 'SLOOP', 'SCHOONER', 'SWAN']","['DESTROYER', 'SWIMMING', 'STEAMBOAT', 'MOOSE', 'SPARROW', 'PEACOCK', 'CAMEL', 'SAILING', 'COW', 'FISHING', 'PARROT', 'SOFTBALL', 'BEAR', 'SLOOP', 'SCHOONER', 'SWAN']",7.0,False,"[2078, 1449, 1330, 2219, 1283, 13127, 17402]",True,42580.0,categorized_16_11,,,,
168,reminder-random,,reminder,46.0,1443603.0,0.0-48.0,pilot,72,opt-rems-full,debugmmDZh:debugaL2Wg,False,[],[],"['STEAMBOAT', 'COW', 'FISHING', 'PARROT', 'SOFTBALL', 'SLOOP', 'SCHOONER', 'SWAN']","['DESTROYER', 'SWIMMING', 'STEAMBOAT', 'MOOSE', 'SPARROW', 'PEACOCK', 'CAMEL', 'SAILING', 'COW', 'FISHING', 'PARROT', 'SOFTBALL', 'BEAR', 'SLOOP', 'SCHOONER', 'SWAN']",0.0,False,[],,,categorized_16_11,DESTROYER,3000.0,,
169,text-recall,,text-recall,49.0,1522002.0,0.0-51.0,pilot,72,opt-rems-full,debugmmDZh:debugaL2Wg,False,"['PIG', 'FOX', 'GOAT', 'MOUSE', 'DIVING', 'BOXING', 'PAPER', 'PAMPHLET', 'GOLF']","['PIG', 'FOX', 'GOAT', 'MOUSE', 'DIVING', 'BOXING', 'PAPER', 'PAMPHLET', 'GOLF']","['FIR', 'NOTE', 'ELM', 'POPLAR', 'LACROSSE', 'BEECH', 'BOOKLET']","['PIG', 'FOX', 'DIVING', 'BOXING', 'PAMPHLET', 'GOLF', 'FIR', 'GOAT', 'NOTE', 'ELM', 'POPLAR', 'MOUSE', 'LACROSSE', 'BEECH', 'PAPER', 'BOOKLET']",9.0,False,"[2382, 476, 793, 1612, 2443, 1454, 896, 2920, 4476]",True,19514.0,categorized_16_7,,,,
170,reminder-best,,reminder,50.0,1599075.0,0.0-52.0,pilot,72,opt-rems-full,debugmmDZh:debugaL2Wg,False,[],[],"['FIR', 'NOTE', 'POPLAR', 'LACROSSE', 'BEECH', 'BOOKLET']","['PIG', 'FOX', 'DIVING', 'BOXING', 'PAMPHLET', 'GOLF', 'FIR', 'GOAT', 'NOTE', 'ELM', 'POPLAR', 'MOUSE', 'LACROSSE', 'BEECH', 'PAPER', 'BOOKLET']",0.0,False,[],,,categorized_16_7,ELM,3000.0,,
171,text-recall,,text-recall,53.0,1707557.0,0.0-55.0,pilot,72,opt-rems-full,debugmmDZh:debugaL2Wg,False,"['FOLK', 'BASEMENT', 'WAGON', 'MOTORCYCLE', 'ESSAY', 'MANUSCRIPT', 'TRAILER', 'NOVEL']","['FOLK', 'BASEMENT', 'WAGON', 'MOTORCYCLE', 'ESSAY', 'MANUSCRIPT', 'TRAILER', 'NOVEL']","['BLUEGRASS', 'REGGAE', 'SYMPHONY', 'KITCHEN', 'ROOM', 'CELLAR', 'LETTER', 'CART']","['BLUEGRASS', 'REGGAE', 'SYMPHONY', 'KITCHEN', 'NOVEL', 'MANUSCRIPT', 'ROOM', 'ESSAY', 'TRAILER', 'CELLAR', 'LETTER', 'CART', 'FOLK', 'BASEMENT', 'MOTORCYCLE', 'WAGON']",8.0,False,"[2282, 1804, 1890, 2432, 3373, 1686, 1196, 12016]",True,54234.0,categorized_16_9,,,,
172,reminder-worst,,reminder,54.0,1749902.0,0.0-56.0,pilot,72,opt-rems-full,debugmmDZh:debugaL2Wg,False,['CART'],[],"['BLUEGRASS', 'REGGAE', 'SYMPHONY', 'KITCHEN', 'ROOM', 'CELLAR', 'LETTER']","['BLUEGRASS', 'REGGAE', 'SYMPHONY', 'KITCHEN', 'NOVEL', 'MANUSCRIPT', 'ROOM', 'ESSAY', 'TRAILER', 'CELLAR', 'LETTER', 'CART', 'FOLK', 'BASEMENT', 'MOTORCYCLE', 'WAGON']",0.0,False,[1109],,,categorized_16_9,CART,3000.0,,
173,text-recall,,text-recall,57.0,1856902.0,0.0-59.0,pilot,72,opt-rems-full,debugmmDZh:debugaL2Wg,False,"['CRANE', 'FALCON', 'PUNK', 'CRANE', 'ELEVATOR', 'TECHNO', 'INSTRUMENTAL', 'COD', 'HERRING', 'PERCH', 'DOVE', 'ENTRANCE']","['CRANE', 'FALCON', 'PUNK', 'ELEVATOR', 'TECHNO', 'INSTRUMENTAL', 'COD', 'HERRING', 'PERCH', 'DOVE', 'ENTRANCE']","['OWL', 'CATFISH', 'CLOSET', 'GOSPEL', 'WALLS']","['ELEVATOR', 'PERCH', 'ENTRANCE', 'TECHNO', 'OWL', 'CATFISH', 'DOVE', 'CLOSET', 'CRANE', 'COD', 'HERRING', 'GOSPEL', 'INSTRUMENTAL', 'WALLS', 'FALCON', 'PUNK']",11.0,False,"[2292, 1813, 2762, 1189, 2919, 1270, 1751, 1160, 1453, 4755, 1208, 4321]",True,52059.0,categorized_16_3,,,,
174,reminder-random,,reminder,58.0,1901229.0,0.0-60.0,pilot,72,opt-rems-full,debugmmDZh:debugaL2Wg,False,['OWL'],['OWL'],"['CATFISH', 'CLOSET', 'WALLS']","['ELEVATOR', 'PERCH', 'ENTRANCE', 'TECHNO', 'OWL', 'CATFISH', 'DOVE', 'CLOSET', 'CRANE', 'COD', 'HERRING', 'GOSPEL', 'INSTRUMENTAL', 'WALLS', 'FALCON', 'PUNK']",1.0,False,[25995],,,categorized_16_3,GOSPEL,3000.0,,
175,text-recall,,text-recall,61.0,1990106.0,0.0-63.0,pilot,72,opt-rems-full,debugmmDZh:debugaL2Wg,False,"['BROWN', 'LIME', 'ACCORDIAN', 'KEYBOARD', 'SWING', 'CRIMSON', 'SCARLET', 'MANGO', 'TANGO', 'PLUM', 'BROWN']","['BROWN', 'LIME', 'ACCORDION', 'KEYBOARD', 'SWING', 'CRIMSON', 'SCARLET', 'MANGO', 'TANGO', 'PLUM']","['FIDDLE', 'WALTZ', 'TAN', 'BALLET', 'FIG', 'HARP']","['ACCORDION', 'MANGO', 'PLUM', 'FIDDLE', 'WALTZ', 'TAN', 'KEYBOARD', 'BALLET', 'CRIMSON', 'FIG', 'HARP', 'TANGO', 'SCARLET', 'SWING', 'LIME', 'BROWN']",10.0,False,"[1138, 846, 2811, 1962, 1327, 2567, 920, 3977, 741, 1525, 1942]",True,32243.0,categorized_16_1,,,,
176,reminder-best,,reminder,62.0,2054480.0,0.0-64.0,pilot,72,opt-rems-full,debugmmDZh:debugaL2Wg,False,[],[],"['WALTZ', 'TAN', 'BALLET', 'FIG', 'HARP']","['ACCORDION', 'MANGO', 'PLUM', 'FIDDLE', 'WALTZ', 'TAN', 'KEYBOARD', 'BALLET', 'CRIMSON', 'FIG', 'HARP', 'TANGO', 'SCARLET', 'SWING', 'LIME', 'BROWN']",0.0,False,[],,,categorized_16_1,FIDDLE,3000.0,,
177,text-recall,,text-recall,65.0,2155752.0,0.0-67.0,pilot,72,opt-rems-full,debugmmDZh:debugaL2Wg,False,"['SOLAR', 'VOLCANO', 'CROW', 'VULTURE', 'ROOF', 'OIL', 'FAULT', 'STEAM', 'VALLEY', 'FINCH']","['SOLAR', 'VOLCANO', 'CROW', 'VULTURE', 'ROOF', 'OIL', 'FAULT', 'STEAM', 'VALLEY', 'FINCH']","['CANYON', 'NUCLEAR', 'HAWK', 'BATHROOM', 'WING', 'FLOOR']","['CROW', 'VULTURE', 'VOLCANO', 'ROOF', 'OIL', 'CANYON', 'NUCLEAR', 'HAWK', 'BATHROOM', 'WING', 'FLOOR', 'FINCH', 'FAULT', 'STEAM', 'VALLEY', 'SOLAR']",10.0,False,"[1124, 1349, 1142, 2536, 3457, 1325, 4674, 879, 1453, 7242]",True,47272.0,categorized_16_10,,,,
178,reminder-random,,reminder,66.0,2204983.0,0.0-68.0,pilot,72,opt-rems-full,debugmmDZh:debugaL2Wg,False,"['CANYON', 'SOLAR']",['CANYON'],"['HAWK', 'BATHROOM', 'WING', 'FLOOR']","['CROW', 'VULTURE', 'VOLCANO', 'ROOF', 'OIL', 'CANYON', 'NUCLEAR', 'HAWK', 'BATHROOM', 'WING', 'FLOOR', 'FINCH', 'FAULT', 'STEAM', 'VALLEY', 'SOLAR']",1.0,False,"[5483, 30021]",,,categorized_16_10,NUCLEAR,3000.0,,
179,text-recall,,text-recall,69.0,2297891.0,0.0-71.0,pilot,72,opt-rems-full,debugmmDZh:debugaL2Wg,False,"['CHICKEN', 'JEEP', 'TAXI', 'STREETCAR', 'PIDGEON', 'DUCK', 'GLACIER', 'TRACTOR', 'RAVINE', 'CANARY', 'STREAM']","['CHICKEN', 'JEEP', 'TAXI', 'STREETCAR', 'DUCK', 'GLACIER', 'TRACTOR', 'RAVINE', 'CANARY', 'STREAM']","['PIGEON', 'BOLT', 'RIDGE', 'PENCIL', 'RULER', 'SCREW']","['GLACIER', 'DUCK', 'TRACTOR', 'STREETCAR', 'PIGEON', 'BOLT', 'STREAM', 'RIDGE', 'PENCIL', 'RULER', 'TAXI', 'RAVINE', 'SCREW', 'CANARY', 'JEEP', 'CHICKEN']",10.0,False,"[2580, 660, 752, 1089, 4186, 1163, 1165, 2813, 6303, 4553, 2283]",True,38982.0,categorized_16_8,,,,
180,reminder-worst,,reminder,70.0,2355395.0,0.0-72.0,pilot,72,opt-rems-full,debugmmDZh:debugaL2Wg,False,['STREETCAR'],[],"['BOLT', 'RIDGE', 'PENCIL', 'RULER', 'SCREW']","['GLACIER', 'DUCK', 'TRACTOR', 'STREETCAR', 'PIGEON', 'BOLT', 'STREAM', 'RIDGE', 'PENCIL', 'RULER', 'TAXI', 'RAVINE', 'SCREW', 'CANARY', 'JEEP', 'CHICKEN']",0.0,False,[16342],,,categorized_16_8,PIGEON,3000.0,,
181,total-points,,,,,,,,,debugmmDZh:debugaL2Wg,,,,,,,,,,,,,,debugmmDZh:debugaL2Wg,95.0
182,survey-text,"{""Q0"":""62fe7a600f06a6711dd668ed""}",survey-text,0.0,8021.0,0.0-0.0,pilot,124,opt-rems-full,debug8NEMq:debug5LO01,,,,,,,,,,,,,,,
183,text-recall,,text-recall,28.0,1429685.0,0.0-27.0,pilot,124,opt-rems-full,debug8NEMq:debug5LO01,False,"['THUNDER', 'EARTHQUAKE', 'ELM', 'CEDAR', 'PERCH', 'CARP', 'TUNA', 'FROST', 'CATFISH', 'WALLS', 'ATTIC', 'CELLAR']","['THUNDER', 'EARTHQUAKE', 'ELM', 'CEDAR', 'PERCH', 'CARP', 'TUNA', 'FROST', 'CATFISH', 'WALLS', 'ATTIC', 'CELLAR']","['WIND', 'ELEVATOR', 'BEECH', 'EVERGREEN']","['FROST', 'TUNA', 'ELM', 'WIND', 'EARTHQUAKE', 'ELEVATOR', 'CARP', 'CATFISH', 'BEECH', 'EVERGREEN', 'WALLS', 'ATTIC', 'CELLAR', 'PERCH', 'CEDAR', 'THUNDER']",12.0,False,"[2046, 5154, 850, 1029, 2420, 12977, 1184, 3044, 6798, 9318, 986, 3230]",True,56190.0,categorized_16_5,,,,
184,reminder-best,,reminder,29.0,1469964.0,0.0-28.0,pilot,124,opt-rems-full,debug8NEMq:debug5LO01,False,"['PERCH', 'CEDAR', 'ELM', 'EVERGREEN']",['EVERGREEN'],"['WIND', 'BEECH']","['FROST', 'TUNA', 'ELM', 'WIND', 'EARTHQUAKE', 'ELEVATOR', 'CARP', 'CATFISH', 'BEECH', 'EVERGREEN', 'WALLS', 'ATTIC', 'CELLAR', 'PERCH', 'CEDAR', 'THUNDER']",1.0,False,"[4356, 2816, 2095, 2446]",,,categorized_16_5,ELEVATOR,3000.0,,
185,text-recall,,text-recall,32.0,1563948.0,0.0-31.0,pilot,124,opt-rems-full,debug8NEMq:debug5LO01,False,"['SCREQ', 'SCREW', 'BOLT', 'DRILL', 'FINCH', 'PENGUIN', 'BOAT']","['SCREW', 'BOLT', 'DRILL', 'FINCH', 'PENGUIN', 'BOAT']","['JEEP', 'SOIL', 'SWAN', 'TRAILER', 'HOSE', 'PITCHFORK', 'SEEDS', 'LEVEL', 'JET', 'DOVE']","['FINCH', 'DRILL', 'JEEP', 'SOIL', 'SWAN', 'PENGUIN', 'TRAILER', 'HOSE', 'PITCHFORK', 'BOAT', 'SEEDS', 'LEVEL', 'JET', 'DOVE', 'SCREW', 'BOLT']",6.0,False,"[1286, 1717, 735, 1055, 5108, 2988, 13319]",True,31203.0,categorized_16_0,,,,
186,reminder-random,,reminder,33.0,1629455.0,0.0-32.0,pilot,124,opt-rems-full,debug8NEMq:debug5LO01,False,"['PITCHFORK', 'LEVEL', 'SOIL', 'SEEDS', 'SWAN']","['PITCHFORK', 'LEVEL', 'SOIL', 'SEEDS', 'SWAN']","['JEEP', 'TRAILER', 'JET', 'DOVE']","['FINCH', 'DRILL', 'JEEP', 'SOIL', 'SWAN', 'PENGUIN', 'TRAILER', 'HOSE', 'PITCHFORK', 'BOAT', 'SEEDS', 'LEVEL', 'JET', 'DOVE', 'SCREW', 'BOLT']",5.0,False,"[3333, 4288, 11577, 1096, 13315]",,,categorized_16_0,HOSE,3000.0,,
187,text-recall,,text-recall,36.0,1747331.0,0.0-35.0,pilot,124,opt-rems-full,debug8NEMq:debug5LO01,False,"['TRACK', 'GINGER', 'SAGE', 'BLUEGRASS', 'FOLK', 'OPERA', 'FENCING', 'BOXING', 'FLOOD', 'DROUGHT', 'GALE']","['TRACK', 'GINGER', 'SAGE', 'BLUEGRASS', 'FOLK', 'OPERA', 'FENCING', 'BOXING', 'FLOOD', 'DROUGHT', 'GALE']","['POP', 'VANILLA', 'SAILING', 'SUGAR', 'CLOUDS']","['POP', 'VANILLA', 'BOXING', 'OPERA', 'SAILING', 'FLOOD', 'FENCING', 'SAGE', 'SUGAR', 'GALE', 'CLOUDS', 'FOLK', 'BLUEGRASS', 'DROUGHT', 'TRACK', 'GINGER']",11.0,False,"[2041, 1295, 1372, 3619, 3411, 1140, 2224, 1707, 16356, 1258, 3214]",True,58224.0,categorized_16_4,,,,
188,reminder-random,,reminder,37.0,1785743.0,0.0-36.0,pilot,124,opt-rems-full,debug8NEMq:debug5LO01,False,"['SAGE', 'GINGER']",[],"['POP', 'VANILLA', 'SAILING', 'CLOUDS']","['POP', 'VANILLA', 'BOXING', 'OPERA', 'SAILING', 'FLOOD', 'FENCING', 'SAGE', 'SUGAR', 'GALE', 'CLOUDS', 'FOLK', 'BLUEGRASS', 'DROUGHT', 'TRACK', 'GINGER']",0.0,False,"[3083, 6283]",,,categorized_16_4,SUGAR,3000.0,,
189,text-recall,,text-recall,40.0,1893657.0,0.0-39.0,pilot,124,opt-rems-full,debug8NEMq:debug5LO01,False,"['STRAWBERRY', 'GRAPE', 'COTTAGE', 'HUT', 'BUNGALOW', 'MANSION', 'BUREAU', 'OTTOMAN', 'RABBIT', 'BEAR', 'LIME']","['STRAWBERRY', 'GRAPE', 'COTTAGE', 'HUT', 'BUNGALOW', 'MANSION', 'BUREAU', 'OTTOMAN', 'RABBIT', 'BEAR', 'LIME']","['DESK', 'LIZARD', 'FIG', 'LAMP', 'GOAT']","['DESK', 'RABBIT', 'BUNGALOW', 'LIZARD', 'BEAR', 'BUREAU', 'LIME', 'FIG', 'LAMP', 'GOAT', 'OTTOMAN', 'COTTAGE', 'HUT', 'MANSION', 'STRAWBERRY', 'GRAPE']",11.0,False,"[2927, 907, 1183, 665, 1676, 1270, 2668, 9315, 4305, 5589, 9264]",True,50859.0,categorized_16_1,,,,
190,reminder-best,,reminder,41.0,1939411.0,0.0-40.0,pilot,124,opt-rems-full,debug8NEMq:debug5LO01,False,['PLUM'],[],"['DESK', 'LIZARD', 'LAMP', 'GOAT']","['DESK', 'RABBIT', 'BUNGALOW', 'LIZARD', 'BEAR', 'BUREAU', 'LIME', 'FIG', 'LAMP', 'GOAT', 'OTTOMAN', 'COTTAGE', 'HUT', 'MANSION', 'STRAWBERRY', 'GRAPE']",0.0,False,[7420],,,categorized_16_1,FIG,3000.0,,
191,text-recall,,text-recall,44.0,2033966.0,0.0-43.0,pilot,124,opt-rems-full,debug8NEMq:debug5LO01,False,"['HELICOPTER', 'ALTERNATIVE', 'PUNK', 'TECHNO', 'SYMPHONY', 'SWIMMING', 'VAN']","['HELICOPTER', 'ALTERNATIVE', 'PUNK', 'TECHNO', 'SYMPHONY', 'SWIMMING', 'VAN']","['GYMNASTICS', 'SHORTS', 'CARRIAGE', 'GOLF', 'LACROSSE', 'HAT', 'TRAIN', 'DRESS', 'BOXERS']","['GYMNASTICS', 'SHORTS', 'CARRIAGE', 'GOLF', 'HELICOPTER', 'PUNK', 'ALTERNATIVE', 'TECHNO', 'LACROSSE', 'HAT', 'TRAIN', 'VAN', 'DRESS', 'BOXERS', 'SWIMMING', 'SYMPHONY']",7.0,False,"[2666, 1374, 972, 1958, 11560, 2122, 11118]",True,36466.0,categorized_16_10,,,,
192,reminder-random,,reminder,45.0,2094178.0,0.0-44.0,pilot,124,opt-rems-full,debug8NEMq:debug5LO01,False,['LACROSSE'],['LACROSSE'],"['GYMNASTICS', 'SHORTS', 'CARRIAGE', 'HAT', 'TRAIN', 'DRESS', 'BOXERS']","['GYMNASTICS', 'SHORTS', 'CARRIAGE', 'GOLF', 'HELICOPTER', 'PUNK', 'ALTERNATIVE', 'TECHNO', 'LACROSSE', 'HAT', 'TRAIN', 'VAN', 'DRESS', 'BOXERS', 'SWIMMING', 'SYMPHONY']",1.0,False,[4267],,,categorized_16_10,GOLF,3000.0,,
193,text-recall,,text-recall,48.0,2629406.0,0.0-47.0,pilot,124,opt-rems-full,debug8NEMq:debug5LO01,False,"['CANYON', 'VALLEY', 'PLATEAU', 'COW', 'PIG', 'SWING', 'VIOLA']","['CANYON', 'VALLEY', 'PLATEAU', 'COW', 'PIG', 'SWING', 'VIOLA']","['BALLET', 'HARMONICA', 'LAKE', 'CLARINET', 'ELK', 'MOOSE', 'WALTZ', 'KEYBOARD', 'TANGO']","['PIG', 'BALLET', 'HARMONICA', 'LAKE', 'CANYON', 'VALLEY', 'CLARINET', 'PLATEAU', 'ELK', 'SWING', 'MOOSE', 'WALTZ', 'KEYBOARD', 'TANGO', 'VIOLA', 'COW']",7.0,False,"[2372, 1177, 3966, 1306, 794, 1432, 11934]",True,90000.0,categorized_16_8,,,,
194,reminder-none,,reminder,49.0,2630411.0,0.0-48.0,pilot,124,opt-rems-full,debug8NEMq:debug5LO01,False,[],[],[],"['PIG', 'BALLET', 'HARMONICA', 'LAKE', 'CANYON', 'VALLEY', 'CLARINET', 'PLATEAU', 'ELK', 'SWING', 'MOOSE', 'WALTZ', 'KEYBOARD', 'TANGO', 'VIOLA', 'COW']",0.0,False,[],,,categorized_16_8,,0.0,,
195,text-recall,,text-recall,52.0,2724691.0,0.0-51.0,pilot,124,opt-rems-full,debug8NEMq:debug5LO01,False,"['SCHOONER', 'CLOSET', 'SKIRT', 'OCEAN', 'SKOOP', 'CEILING', 'BASEMENT', 'FERRY']","['SCHOONER', 'CLOSET', 'SKIRT', 'OCEAN', 'CEILING', 'FERRY']","['SLIP', 'ISLAND', 'DESERT', 'SLOOP', 'DESTROYER', 'KITCHEN', 'GORGE', 'ROOF', 'SUIT', 'TIE']","['CLOSET', 'SLIP', 'OCEAN', 'SKIRT', 'CEILING', 'ISLAND', 'DESERT', 'SLOOP', 'DESTROYER', 'KITCHEN', 'GORGE', 'ROOF', 'SUIT', 'FERRY', 'TIE', 'SCHOONER']",6.0,False,"[2379, 1130, 804, 2862, 1753, 1899, 6523, 6326]",True,34984.0,categorized_16_11,,,,
196,reminder-worst,,reminder,53.0,2786226.0,0.0-52.0,pilot,124,opt-rems-full,debug8NEMq:debug5LO01,False,"['HOUSE', 'OCEAN']",[],"['SLIP', 'ISLAND', 'DESERT', 'SLOOP', 'DESTROYER', 'KITCHEN', 'GORGE', 'SUIT', 'TIE']","['CLOSET', 'SLIP', 'OCEAN', 'SKIRT', 'CEILING', 'ISLAND', 'DESERT', 'SLOOP', 'DESTROYER', 'KITCHEN', 'GORGE', 'ROOF', 'SUIT', 'FERRY', 'TIE', 'SCHOONER']",0.0,False,"[7140, 1856]",,,categorized_16_11,ROOF,3000.0,,
197,text-recall,,text-recall,56.0,2925165.0,0.0-55.0,pilot,124,opt-rems-full,debug8NEMq:debug5LO01,False,"['EDITORIAL', 'DONKEY', 'RAT', 'TROUSERS', 'ESSAY', 'JOURNAL', 'WOLF', 'ROBE']","['EDITORIAL', 'DONKEY', 'RAT', 'TROUSERS', 'ESSAY', 'JOURNAL', 'WOLF', 'ROBE']","['WING', 'JEANS', 'BASEMENT', 'DEER', 'BELT', 'ROOM', 'BULLETIN', 'BATHROOM']","['EDITORIAL', 'DONKEY', 'TROUSERS', 'WING', 'RAT', 'JEANS', 'BASEMENT', 'DEER', 'ROBE', 'BELT', 'ROOM', 'ESSAY', 'JOURNAL', 'BULLETIN', 'BATHROOM', 'WOLF']",8.0,False,"[1784, 1149, 685, 1561, 3005, 1495, 8734, 8663]",True,32971.0,categorized_16_9,,,,
198,reminder-best,,reminder,57.0,2990608.0,0.0-56.0,pilot,124,opt-rems-full,debug8NEMq:debug5LO01,False,['SUIT'],[],"['WING', 'JEANS', 'DEER', 'BELT', 'ROOM', 'BULLETIN', 'BATHROOM']","['EDITORIAL', 'DONKEY', 'TROUSERS', 'WING', 'RAT', 'JEANS', 'BASEMENT', 'DEER', 'ROBE', 'BELT', 'ROOM', 'ESSAY', 'JOURNAL', 'BULLETIN', 'BATHROOM', 'WOLF']",0.0,False,[9372],,,categorized_16_9,BASEMENT,3000.0,,
199,text-recall,,text-recall,60.0,3074017.0,0.0-59.0,pilot,124,opt-rems-full,debug8NEMq:debug5LO01,False,"['CRANE', 'SPARROW', 'DIGEST', 'PORCH', 'TRAIN', 'TROLLEY', 'SUBWAY', 'CHICKEN']","['CRANE', 'SPARROW', 'DIGEST', 'PORCH', 'TROLLEY', 'SUBWAY', 'CHICKEN']","['BICYCLE', 'NOVEL', 'LETTER', 'LOBBY', 'STREETCAR', 'ENTRANCE', 'FLOOR', 'PAPER', 'PARROT']","['TROLLEY', 'BICYCLE', 'NOVEL', 'SUBWAY', 'LETTER', 'LOBBY', 'STREETCAR', 'ENTRANCE', 'FLOOR', 'CHICKEN', 'PAPER', 'CRANE', 'SPARROW', 'DIGEST', 'PARROT', 'PORCH']",7.0,False,"[1309, 1267, 1385, 1223, 1996, 1245, 1922, 7914]",True,25725.0,categorized_16_6,,,,
200,reminder-worst,,reminder,61.0,3145151.0,0.0-60.0,pilot,124,opt-rems-full,debug8NEMq:debug5LO01,False,['STREETCAR'],['STREETCAR'],"['NOVEL', 'LETTER', 'LOBBY', 'ENTRANCE', 'FLOOR', 'PAPER', 'PARROT']","['TROLLEY', 'BICYCLE', 'NOVEL', 'SUBWAY', 'LETTER', 'LOBBY', 'STREETCAR', 'ENTRANCE', 'FLOOR', 'CHICKEN', 'PAPER', 'CRANE', 'SPARROW', 'DIGEST', 'PARROT', 'PORCH']",1.0,False,[2735],,,categorized_16_6,BICYCLE,3000.0,,
201,text-recall,,text-recall,64.0,3267869.0,0.0-63.0,pilot,124,opt-rems-full,debug8NEMq:debug5LO01,False,"['LINEN', 'LEATHER', 'HAWK', 'STEAM', 'NINTENDO', 'CANNARY', 'BLOCKS', 'PUZZLE', 'RAYON']","['LINEN', 'LEATHER', 'HAWK', 'STEAM', 'BLOCKS', 'PUZZLE', 'RAYON']","['CLOTH', 'NINTENDO', 'NUCLEAR', 'CANARY', 'SOLAR', 'KITE', 'PEACOCK', 'OIL', 'VULTURE']","['LINEN', 'LEATHER', 'HAWK', 'PUZZLE', 'STEAM', 'CLOTH', 'NINTENDO', 'NUCLEAR', 'CANARY', 'SOLAR', 'KITE', 'BLOCKS', 'PEACOCK', 'OIL', 'VULTURE', 'RAYON']",7.0,False,"[1765, 1189, 1651, 1360, 1559, 2323, 5161, 4271, 20475]",True,47078.0,categorized_16_2,,,,
