debuguiW6X:debugITEf6,0,1.64E+12,"{""type"": ""survey-text"", ""responses"": ""{\""Q0\"":\""5f96ecaca0ed8c01b13dd7c4\""}"", ""trial_type"": ""survey-text"", ""trial_index"": 0, ""time_elapsed"": 17265, ""internal_node_id"": ""0.0-0.0"", ""mode"": ""pilot"", ""subject_cond"": ""0"", ""exp"": ""expAv3""}"
debuglNYgT:debug91U3D,0,1.64E+12,"{""type"": ""survey-text"", ""responses"": ""{\""Q0\"":\""615211c71871ab62cb14cbe1\""}"", ""trial_type"": ""survey-text"", ""trial_index"": 0, ""time_elapsed"": 5610, ""internal_node_id"": ""0.0-0.0"", ""mode"": ""pilot"", ""subject_cond"": ""1"", ""exp"": ""expAv3""}"
debugjHiAt:debugtsSZL,0,1.64E+12,"{""type"": ""survey-text"", ""responses"": ""{\""Q0\"":\""615033332cea99204ba90a95\""}"", ""trial_type"": ""survey-text"", ""trial_index"": 0, ""time_elapsed"": 9406, ""internal_node_id"": ""0.0-0.0"", ""mode"": ""pilot"", ""subject_cond"": ""4"", ""exp"": ""expAv3""}"
debugjHiAt:debugtsSZL,1,1.64E+12,"{""type"": ""text-recall"", ""success"": false, ""recalled_list"": [""CHICKEN"", ""VULTURE"", ""PARROT"", ""CLOUD"", ""RAIN"", ""TROUSERS"", ""JACKET"", ""SKIRT"", ""SUIT"", ""SUNSHINE"", ""RAIN""], ""matching_list"": [""CHICKEN"", ""VULTURE"", ""PARROT"", ""CLOUDS"", ""RAIN"", ""TROUSERS"", ""JACKET"", ""SKIRT"", ""SUIT"", ""SUNSHINE""], ""missing_list"": [""ELEPHANT"", ""SNOW"", ""SQUIRREL"", ""FOX"", ""HAWK"", ""TURTLE""], ""shown_list"": [""SUNSHINE"", ""ELEPHANT"", ""VULTURE"", ""SUIT"", ""RAIN"", ""SNOW"", ""SQUIRREL"", ""PARROT"", ""TROUSERS"", ""FOX"", ""HAWK"", ""CLOUDS"", ""TURTLE"", ""SKIRT"", ""JACKET"", ""CHICKEN""], ""num_correct"": 10, ""instructions"": false, ""times"": [5244, 5521, 7112, 2336, 1016, 1783, 1441, 1127, 13354, 5489, 1423], ""correct_sizes"": true, ""used_time"": 49924, ""list_type"": ""categorized_16_9"", ""trial_type"": ""text-recall"", ""trial_index"": 25, ""time_elapsed"": 567325, ""internal_node_id"": ""0.0-27.0"", ""mode"": ""pilot"", ""subject_cond"": ""4"", ""exp"": ""expAv3""}"
debugjHiAt:debugtsSZL,2,1.64E+12,"{""type"": ""reminder"", ""success"": false, ""recalled_list"": [""ELEPHANT"", ""VULTURE"", ""PARROT"", ""CHICKEN"", ""FOX"", ""HAWK""], ""matching_list"": [""FOX"", ""HAWK""], ""missing_list"": [""SNOW"", ""SQUIRREL"", ""TURTLE""], ""shown_list"": [""SUNSHINE"", ""ELEPHANT"", ""VULTURE"", ""SUIT"", ""RAIN"", ""SNOW"", ""SQUIRREL"", ""PARROT"", ""TROUSERS"", ""FOX"", ""HAWK"", ""CLOUDS"", ""TURTLE"", ""SKIRT"", ""JACKET"", ""CHICKEN""], ""num_correct"": 2, ""instructions"": false, ""times"": [2665, 2329, 1440, 1568, 3680, 1344], ""reminder"": ""ELEPHANT"", ""list_type"": ""categorized_16_9"", ""trial_type"": ""reminder"", ""trial_index"": 26, ""time_elapsed"": 611489, ""internal_node_id"": ""0.0-28.0"", ""mode"": ""pilot"", ""subject_cond"": ""4"", ""exp"": ""expAv3""}"
debugjHiAt:debugtsSZL,3,1.64E+12,"{""type"": ""text-recall"", ""success"": false, ""recalled_list"": [""SLIP"", ""EARTHQUAKE"", ""CLIFF"", ""CAVE"", ""SHORTS"", ""SLIP"", ""CAVE"", ""HARP"", ""HAIL""], ""matching_list"": [""SLIP"", ""EARTHQUAKE"", ""CLIFF"", ""CAVE"", ""SHORTS"", ""HARP"", ""HAIL""], ""missing_list"": [""CLARINET"", ""KEYBOARD"", ""BOXERS"", ""TIE"", ""PLATEAU"", ""GORGE"", ""BANJO"", ""WIND"", ""BLIZZARD""], ""shown_list"": [""CLARINET"", ""KEYBOARD"", ""BOXERS"", ""TIE"", ""HAIL"", ""CAVE"", ""PLATEAU"", ""GORGE"", ""BANJO"", ""HARP"", ""CLIFF"", ""EARTHQUAKE"", ""WIND"", ""SHORTS"", ""BLIZZARD"", ""SLIP""], ""num_correct"": 7, ""instructions"": false, ""times"": [4766, 3255, 1353, 1472, 3528, 3960, 7519, 3528, 10305], ""correct_sizes"": true, ""used_time"": 61072, ""list_type"": ""categorized_16_7"", ""trial_type"": ""text-recall"", ""trial_index"": 29, ""time_elapsed"": 743922, ""internal_node_id"": ""0.0-31.0"", ""mode"": ""pilot"", ""subject_cond"": ""4"", ""exp"": ""expAv3""}"
debugjHiAt:debugtsSZL,4,1.64E+12,"{""type"": ""reminder"", ""success"": false, ""recalled_list"": [""WIND"", ""SLIP"", ""HAIL"", ""CAVE""], ""matching_list"": [], ""missing_list"": [""CLARINET"", ""KEYBOARD"", ""BOXERS"", ""TIE"", ""PLATEAU"", ""GORGE"", ""BANJO"", ""BLIZZARD""], ""shown_list"": [""CLARINET"", ""KEYBOARD"", ""BOXERS"", ""TIE"", ""HAIL"", ""CAVE"", ""PLATEAU"", ""GORGE"", ""BANJO"", ""HARP"", ""CLIFF"", ""EARTHQUAKE"", ""WIND"", ""SHORTS"", ""BLIZZARD"", ""SLIP""], ""num_correct"": 0, ""instructions"": false, ""times"": [4294, 1136, 1727, 8097], ""reminder"": ""WIND"", ""list_type"": ""categorized_16_7"", ""trial_type"": ""reminder"", ""trial_index"": 30, ""time_elapsed"": 776849, ""internal_node_id"": ""0.0-32.0"", ""mode"": ""pilot"", ""subject_cond"": ""4"", ""exp"": ""expAv3""}"
debugjHiAt:debugtsSZL,5,1.64E+12,"{""type"": ""text-recall"", ""success"": false, ""recalled_list"": [""HOSE"", ""KITE"", ""SQUIRREL"", ""BALL"", ""HOSE"", ""BOX""], ""matching_list"": [""HOSE"", ""KITE"", ""BALL""], ""missing_list"": [""CRANE"", ""DIGEST"", ""NINTENDO"", ""BUCKET"", ""SOIL"", ""SWAN"", ""SEEDS"", ""EDITORIAL"", ""MANUSCRIPT"", ""SPARROW"", ""PUZZLE"", ""FALCON"", ""LETTER""], ""shown_list"": [""CRANE"", ""DIGEST"", ""NINTENDO"", ""BUCKET"", ""SOIL"", ""SWAN"", ""SEEDS"", ""EDITORIAL"", ""MANUSCRIPT"", ""SPARROW"", ""KITE"", ""PUZZLE"", ""BALL"", ""FALCON"", ""LETTER"", ""HOSE""], ""num_correct"": 3, ""instructions"": false, ""times"": [2550, 976, 2576, 2040, 1720, 6240], ""correct_sizes"": false, ""used_time"": 25325, ""list_type"": ""categorized_16_2"", ""trial_type"": ""text-recall"", ""trial_index"": 33, ""time_elapsed"": 865329, ""internal_node_id"": ""0.0-35.0"", ""mode"": ""pilot"", ""subject_cond"": ""4"", ""exp"": ""expAv3""}"
debugjHiAt:debugtsSZL,6,1.64E+12,"{""type"": ""reminder"", ""success"": false, ""recalled_list"": [""SOIL"", ""NINTENDO""], ""matching_list"": [""SOIL""], ""missing_list"": [""CRANE"", ""DIGEST"", ""NINTENDO"", ""BUCKET"", ""SWAN"", ""EDITORIAL"", ""MANUSCRIPT"", ""SPARROW"", ""PUZZLE"", ""FALCON"", ""LETTER""], ""shown_list"": [""CRANE"", ""DIGEST"", ""NINTENDO"", ""BUCKET"", ""SOIL"", ""SWAN"", ""SEEDS"", ""EDITORIAL"", ""MANUSCRIPT"", ""SPARROW"", ""KITE"", ""PUZZLE"", ""BALL"", ""FALCON"", ""LETTER"", ""HOSE""], ""num_correct"": 1, ""instructions"": false, ""times"": [10400, 8000], ""reminder"": ""SEEDS"", ""list_type"": ""categorized_16_2"", ""trial_type"": ""reminder"", ""trial_index"": 34, ""time_elapsed"": 936038, ""internal_node_id"": ""0.0-36.0"", ""mode"": ""pilot"", ""subject_cond"": ""4"", ""exp"": ""expAv3""}"
debugjHiAt:debugtsSZL,7,1.64E+12,"{""type"": ""text-recall"", ""success"": false, ""recalled_list"": [""CLOSET"", ""ROOM"", ""KITCHEN"", ""TRACK"", ""SWIMMING"", ""GYMNASTICS"", ""BELT"", ""CYCLING"", ""FROST"", ""LIGHTNING""], ""matching_list"": [""CLOSET"", ""ROOM"", ""KITCHEN"", ""TRACK"", ""SWIMMING"", ""GYMNASTICS"", ""BELT"", ""FROST"", ""LIGHTNING""], ""missing_list"": [""BOWLING"", ""COAT"", ""ROBE"", ""GALE"", ""FOG"", ""ELEVATOR"", ""DRESS""], ""shown_list"": [""SWIMMING"", ""BOWLING"", ""COAT"", ""ROBE"", ""GALE"", ""KITCHEN"", ""GYMNASTICS"", ""TRACK"", ""LIGHTNING"", ""FOG"", ""BELT"", ""ELEVATOR"", ""DRESS"", ""FROST"", ""ROOM"", ""CLOSET""], ""num_correct"": 9, ""instructions"": false, ""times"": [4165, 1073, 1848, 1168, 1408, 2864, 3137, 6406, 5225, 6240], ""correct_sizes"": true, ""used_time"": 36213, ""list_type"": ""categorized_16_8"", ""trial_type"": ""text-recall"", ""trial_index"": 37, ""time_elapsed"": 1036181, ""internal_node_id"": ""0.0-39.0"", ""mode"": ""pilot"", ""subject_cond"": ""4"", ""exp"": ""expAv3""}"
debugjHiAt:debugtsSZL,8,1.64E+12,"{""type"": ""reminder"", ""success"": false, ""recalled_list"": [""FOG""], ""matching_list"": [], ""missing_list"": [""BOWLING"", ""COAT"", ""ROBE"", ""GALE"", ""ELEVATOR"", ""DRESS""], ""shown_list"": [""SWIMMING"", ""BOWLING"", ""COAT"", ""ROBE"", ""GALE"", ""KITCHEN"", ""GYMNASTICS"", ""TRACK"", ""LIGHTNING"", ""FOG"", ""BELT"", ""ELEVATOR"", ""DRESS"", ""FROST"", ""ROOM"", ""CLOSET""], ""num_correct"": 0, ""instructions"": false, ""times"": [2465], ""reminder"": ""FOG"", ""list_type"": ""categorized_16_8"", ""trial_type"": ""reminder"", ""trial_index"": 38, ""time_elapsed"": 1094108, ""internal_node_id"": ""0.0-40.0"", ""mode"": ""pilot"", ""subject_cond"": ""4"", ""exp"": ""expAv3""}"
debugjHiAt:debugtsSZL,9,1.64E+12,"{""type"": ""text-recall"", ""success"": false, ""recalled_list"": [""COTTAGE"", ""HOTEL"", ""MANSION"", ""WALLS"", ""ENTRANCE"", ""BASEMENT"", ""ATTIC"", ""MANGO"", ""PLUM"", ""LIME"", ""GRAPE"", ""PLUM"", ""DORMITORY""], ""matching_list"": [""COTTAGE"", ""HOTEL"", ""MANSION"", ""WALLS"", ""ENTRANCE"", ""BASEMENT"", ""ATTIC"", ""MANGO"", ""PLUM"", ""LIME"", ""GRAPE"", ""DORMITORY""], ""missing_list"": [""CAMEL"", ""ELK"", ""RAT"", ""RABBIT""], ""shown_list"": [""GRAPE"", ""LIME"", ""MANSION"", ""PLUM"", ""DORMITORY"", ""CAMEL"", ""ENTRANCE"", ""WALLS"", ""ELK"", ""MANGO"", ""RAT"", ""RABBIT"", ""ATTIC"", ""BASEMENT"", ""COTTAGE"", ""HOTEL""], ""num_correct"": 12, ""instructions"": false, ""times"": [3302, 1329, 2289, 1047, 3792, 1623, 913, 1112, 2552, 1384, 1968, 9624, 5512], ""correct_sizes"": true, ""used_time"": 38182, ""list_type"": ""categorized_16_4"", ""trial_type"": ""text-recall"", ""trial_index"": 41, ""time_elapsed"": 1186718, ""internal_node_id"": ""0.0-43.0"", ""mode"": ""pilot"", ""subject_cond"": ""4"", ""exp"": ""expAv3""}"
debugjHiAt:debugtsSZL,10,1.64E+12,"{""type"": ""reminder"", ""success"": false, ""recalled_list"": [""RAT""], ""matching_list"": [], ""missing_list"": [""CAMEL"", ""ELK"", ""RABBIT""], ""shown_list"": [""GRAPE"", ""LIME"", ""MANSION"", ""PLUM"", ""DORMITORY"", ""CAMEL"", ""ENTRANCE"", ""WALLS"", ""ELK"", ""MANGO"", ""RAT"", ""RABBIT"", ""ATTIC"", ""BASEMENT"", ""COTTAGE"", ""HOTEL""], ""num_correct"": 0, ""instructions"": false, ""times"": [3545], ""reminder"": ""RAT"", ""list_type"": ""categorized_16_4"", ""trial_type"": ""reminder"", ""trial_index"": 42, ""time_elapsed"": 1242580, ""internal_node_id"": ""0.0-44.0"", ""mode"": ""pilot"", ""subject_cond"": ""4"", ""exp"": ""expAv3""}"
debugjHiAt:debugtsSZL,11,1.64E+12,"{""type"": ""text-recall"", ""success"": false, ""recalled_list"": [""GOLF"", ""SKIING"", ""TAN"", ""OTTOMAN"", ""MAROON"", ""GRAY"", ""REGGAE"", ""TECHNO"", ""GOLFING"", ""GOLF"", ""FOLK"", ""INSTRUMENTAL""], ""matching_list"": [""GOLF"", ""SKIING"", ""TAN"", ""OTTOMAN"", ""MAROON"", ""GRAY"", ""REGGAE"", ""TECHNO"", ""FOLK"", ""INSTRUMENTAL""], ""missing_list"": [""BOXING"", ""CABINET"", ""BROWN"", ""DESK"", ""SAILING"", ""BUREAU""], ""shown_list"": [""SKIING"", ""TAN"", ""BOXING"", ""CABINET"", ""BROWN"", ""OTTOMAN"", ""TECHNO"", ""INSTRUMENTAL"", ""DESK"", ""REGGAE"", ""MAROON"", ""GRAY"", ""FOLK"", ""SAILING"", ""BUREAU"", ""GOLF""], ""num_correct"": 10, ""instructions"": false, ""times"": [1957, 1688, 1024, 1840, 2176, 1633, 6944, 1536, 2015, 2008, 3728, 2769], ""correct_sizes"": true, ""used_time"": 30692, ""list_type"": ""categorized_16_6"", ""trial_type"": ""text-recall"", ""trial_index"": 45, ""time_elapsed"": 1327366, ""internal_node_id"": ""0.0-47.0"", ""mode"": ""pilot"", ""subject_cond"": ""4"", ""exp"": ""expAv3""}"
debugjHiAt:debugtsSZL,12,1.64E+12,"{""type"": ""reminder"", ""success"": false, ""recalled_list"": [""BOXING"", ""CABINET""], ""matching_list"": [""CABINET""], ""missing_list"": [""BROWN"", ""DESK"", ""SAILING"", ""BUREAU""], ""shown_list"": [""SKIING"", ""TAN"", ""BOXING"", ""CABINET"", ""BROWN"", ""OTTOMAN"", ""TECHNO"", ""INSTRUMENTAL"", ""DESK"", ""REGGAE"", ""MAROON"", ""GRAY"", ""FOLK"", ""SAILING"", ""BUREAU"", ""GOLF""], ""num_correct"": 1, ""instructions"": false, ""times"": [3113, 2120], ""reminder"": ""BOXING"", ""list_type"": ""categorized_16_6"", ""trial_type"": ""reminder"", ""trial_index"": 46, ""time_elapsed"": 1390691, ""internal_node_id"": ""0.0-48.0"", ""mode"": ""pilot"", ""subject_cond"": ""4"", ""exp"": ""expAv3""}"
debugjHiAt:debugtsSZL,13,1.64E+12,"{""type"": ""text-recall"", ""success"": false, ""recalled_list"": [""BARGE"", ""BATTLESHIP"", ""SALSA"", ""BALLROOM"", ""WALTZ"", ""BALLET"", ""HORNET"", ""WASP"", ""VELVET"", ""CLOTH""], ""matching_list"": [""BARGE"", ""BATTLESHIP"", ""SALSA"", ""BALLROOM"", ""WALTZ"", ""BALLET"", ""HORNET"", ""WASP"", ""VELVET"", ""CLOTH""], ""missing_list"": [""FERRY"", ""LACE"", ""BUTTERFLY"", ""MOSQUITO"", ""TANKER"", ""LEATHER""], ""shown_list"": [""WALTZ"", ""FERRY"", ""SALSA"", ""WASP"", ""BARGE"", ""LACE"", ""BALLET"", ""BUTTERFLY"", ""VELVET"", ""HORNET"", ""MOSQUITO"", ""TANKER"", ""CLOTH"", ""LEATHER"", ""BALLROOM"", ""BATTLESHIP""], ""num_correct"": 10, ""instructions"": false, ""times"": [1965, 4218, 1688, 1727, 1585, 2983, 2145, 2294, 11521, 1440], ""correct_sizes"": true, ""used_time"": 51510, ""list_type"": ""categorized_16_1"", ""trial_type"": ""text-recall"", ""trial_index"": 49, ""time_elapsed"": 1498011, ""internal_node_id"": ""0.0-51.0"", ""mode"": ""pilot"", ""subject_cond"": ""4"", ""exp"": ""expAv3""}"
debugjHiAt:debugtsSZL,14,1.64E+12,"{""type"": ""reminder"", ""success"": false, ""recalled_list"": [""LEATHER""], ""matching_list"": [], ""missing_list"": [""FERRY"", ""LACE"", ""BUTTERFLY"", ""MOSQUITO"", ""TANKER""], ""shown_list"": [""WALTZ"", ""FERRY"", ""SALSA"", ""WASP"", ""BARGE"", ""LACE"", ""BALLET"", ""BUTTERFLY"", ""VELVET"", ""HORNET"", ""MOSQUITO"", ""TANKER"", ""CLOTH"", ""LEATHER"", ""BALLROOM"", ""BATTLESHIP""], ""num_correct"": 0, ""instructions"": false, ""times"": [3523], ""reminder"": ""LEATHER"", ""list_type"": ""categorized_16_1"", ""trial_type"": ""reminder"", ""trial_index"": 50, ""time_elapsed"": 1540543, ""internal_node_id"": ""0.0-52.0"", ""mode"": ""pilot"", ""subject_cond"": ""4"", ""exp"": ""expAv3""}"
debugjHiAt:debugtsSZL,15,1.64E+12,"{""type"": ""text-recall"", ""success"": false, ""recalled_list"": [""WRESTLING"", ""FENCING"", ""BLUEGRASS"", ""SAGE"", ""GINGER"", ""RUGBY"", ""OWL"", ""CROW"", ""ALTERNATIVE""], ""matching_list"": [""WRESTLING"", ""FENCING"", ""BLUEGRASS"", ""SAGE"", ""GINGER"", ""RUGBY"", ""OWL"", ""CROW"", ""ALTERNATIVE""], ""missing_list"": [""CANARY"", ""BLUES"", ""VANILLA"", ""OPERA"", ""HANDBALL"", ""SUGAR"", ""PENGUIN""], ""shown_list"": [""CANARY"", ""BLUES"", ""VANILLA"", ""RUGBY"", ""FENCING"", ""GINGER"", ""SAGE"", ""ALTERNATIVE"", ""OWL"", ""OPERA"", ""HANDBALL"", ""CROW"", ""SUGAR"", ""PENGUIN"", ""BLUEGRASS"", ""WRESTLING""], ""num_correct"": 9, ""instructions"": false, ""times"": [2992, 1512, 4696, 4016, 1696, 4888, 1937, 1472, 7039], ""correct_sizes"": true, ""used_time"": 38856, ""list_type"": ""categorized_16_0"", ""trial_type"": ""text-recall"", ""trial_index"": 53, ""time_elapsed"": 1633801, ""internal_node_id"": ""0.0-55.0"", ""mode"": ""pilot"", ""subject_cond"": ""4"", ""exp"": ""expAv3""}"
debugjHiAt:debugtsSZL,16,1.64E+12,"{""type"": ""reminder"", ""success"": false, ""recalled_list"": [""CANARY""], ""matching_list"": [], ""missing_list"": [""BLUES"", ""VANILLA"", ""OPERA"", ""HANDBALL"", ""SUGAR"", ""PENGUIN""], ""shown_list"": [""CANARY"", ""BLUES"", ""VANILLA"", ""RUGBY"", ""FENCING"", ""GINGER"", ""SAGE"", ""ALTERNATIVE"", ""OWL"", ""OPERA"", ""HANDBALL"", ""CROW"", ""SUGAR"", ""PENGUIN"", ""BLUEGRASS"", ""WRESTLING""], ""num_correct"": 0, ""instructions"": false, ""times"": [2094], ""reminder"": ""CANARY"", ""list_type"": ""categorized_16_0"", ""trial_type"": ""reminder"", ""trial_index"": 54, ""time_elapsed"": 1689073, ""internal_node_id"": ""0.0-56.0"", ""mode"": ""pilot"", ""subject_cond"": ""4"", ""exp"": ""expAv3""}"
debugjHiAt:debugtsSZL,17,1.64E+12,"{""type"": ""text-recall"", ""success"": false, ""recalled_list"": [""TYHOON"", ""TSUNAMI"", ""CYCLONE"", ""CEDAR"", ""ELM"", ""FIR"", ""ELK"", ""THUNDER""], ""matching_list"": [""TYPHOON"", ""TSUNAMI"", ""CYCLONE"", ""CEDAR"", ""ELM"", ""FIR"", ""THUNDER""], ""missing_list"": [""STEAM"", ""NUCLEAR"", ""ELECTRICITY"", ""SYMPHONY"", ""SOLAR"", ""SOUL"", ""SKA"", ""GOSPEL"", ""EUCALYPTUS""], ""shown_list"": [""TYPHOON"", ""STEAM"", ""NUCLEAR"", ""FIR"", ""ELECTRICITY"", ""ELM"", ""CEDAR"", ""SYMPHONY"", ""SOLAR"", ""SOUL"", ""SKA"", ""CYCLONE"", ""GOSPEL"", ""TSUNAMI"", ""THUNDER"", ""EUCALYPTUS""], ""num_correct"": 7, ""instructions"": false, ""times"": [7582, 3273, 4383, 1321, 1095, 832, 1696, 3864], ""correct_sizes"": true, ""used_time"": 88782, ""list_type"": ""categorized_16_5"", ""trial_type"": ""text-recall"", ""trial_index"": 57, ""time_elapsed"": 1831904, ""internal_node_id"": ""0.0-59.0"", ""mode"": ""pilot"", ""subject_cond"": ""4"", ""exp"": ""expAv3""}"
debugjHiAt:debugtsSZL,18,1.64E+12,"{""type"": ""reminder"", ""success"": false, ""recalled_list"": [""STEAM""], ""matching_list"": [], ""missing_list"": [""NUCLEAR"", ""ELECTRICITY"", ""SYMPHONY"", ""SOLAR"", ""SOUL"", ""SKA"", ""GOSPEL"", ""EUCALYPTUS""], ""shown_list"": [""TYPHOON"", ""STEAM"", ""NUCLEAR"", ""FIR"", ""ELECTRICITY"", ""ELM"", ""CEDAR"", ""SYMPHONY"", ""SOLAR"", ""SOUL"", ""SKA"", ""CYCLONE"", ""GOSPEL"", ""TSUNAMI"", ""THUNDER"", ""EUCALYPTUS""], ""num_correct"": 0, ""instructions"": false, ""times"": [6244], ""reminder"": ""STEAM"", ""list_type"": ""categorized_16_5"", ""trial_type"": ""reminder"", ""trial_index"": 58, ""time_elapsed"": 1855899, ""internal_node_id"": ""0.0-60.0"", ""mode"": ""pilot"", ""subject_cond"": ""4"", ""exp"": ""expAv3""}"
debugjHiAt:debugtsSZL,19,1.64E+12,"{""type"": ""text-recall"", ""success"": false, ""recalled_list"": [""PIG"", ""WOLF"", ""PENCIL"", ""JOURNAL"", ""PAPER"", ""RULER"", ""NOTEPAD"", ""DEER"", ""WOLF"", ""SHARK"", ""DRILL""], ""matching_list"": [""PIG"", ""WOLF"", ""PENCIL"", ""JOURNAL"", ""PAPER"", ""RULER"", ""DEER"", ""SHARK"", ""DRILL""], ""missing_list"": [""BOLT"", ""CARP"", ""NOTE"", ""GOAT"", ""PERCH"", ""CATFISH"", ""ENCYCLOPEDIA""], ""shown_list"": [""BOLT"", ""DEER"", ""SHARK"", ""PAPER"", ""CARP"", ""PENCIL"", ""JOURNAL"", ""NOTE"", ""GOAT"", ""PERCH"", ""CATFISH"", ""ENCYCLOPEDIA"", ""RULER"", ""WOLF"", ""DRILL"", ""PIG""], ""num_correct"": 9, ""instructions"": false, ""times"": [1532, 1728, 1911, 5185, 1534, 3786, 2007, 12177, 3079, 1137, 1472], ""correct_sizes"": true, ""used_time"": 38747, ""list_type"": ""categorized_16_3"", ""trial_type"": ""text-recall"", ""trial_index"": 61, ""time_elapsed"": 1952715, ""internal_node_id"": ""0.0-63.0"", ""mode"": ""pilot"", ""subject_cond"": ""4"", ""exp"": ""expAv3""}"
debugjHiAt:debugtsSZL,20,1.64E+12,"{""type"": ""reminder"", ""success"": false, ""recalled_list"": [], ""matching_list"": [], ""missing_list"": [""BOLT"", ""CARP"", ""NOTE"", ""GOAT"", ""PERCH"", ""CATFISH""], ""shown_list"": [""BOLT"", ""DEER"", ""SHARK"", ""PAPER"", ""CARP"", ""PENCIL"", ""JOURNAL"", ""NOTE"", ""GOAT"", ""PERCH"", ""CATFISH"", ""ENCYCLOPEDIA"", ""RULER"", ""WOLF"", ""DRILL"", ""PIG""], ""num_correct"": 0, ""instructions"": false, ""times"": [], ""reminder"": ""ENCYCLOPEDIA"", ""list_type"": ""categorized_16_3"", ""trial_type"": ""reminder"", ""trial_index"": 62, ""time_elapsed"": 2008238, ""internal_node_id"": ""0.0-64.0"", ""mode"": ""pilot"", ""subject_cond"": ""4"", ""exp"": ""expAv3""}"
debugjHiAt:debugtsSZL,21,1.64E+12,"{""type"": ""survey-text"", ""responses"": ""{\""Q0\"":\""\""}"", ""trial_type"": ""survey-text"", ""trial_index"": 65, ""time_elapsed"": 2022649, ""internal_node_id"": ""0.0-67.0"", ""mode"": ""pilot"", ""subject_cond"": ""4"", ""exp"": ""expAv3""}"
debugjHiAt:debugtsSZL,22,1.64E+12,"{""id"": ""debugjHiAt:debugtsSZL"", ""type"": ""total-points"", ""total_points"": 92}"
debugqhzqd:debugDUpJ5,0,1.64E+12,"{""type"": ""survey-text"", ""responses"": ""{\""Q0\"":\""603e66c867d4bcef6f7af649\""}"", ""trial_type"": ""survey-text"", ""trial_index"": 0, ""time_elapsed"": 12578, ""internal_node_id"": ""0.0-0.0"", ""mode"": ""pilot"", ""subject_cond"": ""9"", ""exp"": ""expAv3""}"
debugqhzqd:debugDUpJ5,1,1.64E+12,"{""type"": ""text-recall"", ""success"": false, ""recalled_list"": [""GOSPEL"", ""ANTILOPE"", ""BEACH"", ""SHEEP"", ""EUCALYPTUS"", ""ANTILOPE"", ""WILLOW"", ""SQUIRREL"", ""POP"", ""SYMPHONY""], ""matching_list"": [""GOSPEL"", ""SHEEP"", ""EUCALYPTUS"", ""WILLOW"", ""SQUIRREL"", ""POP"", ""SYMPHONY""], ""missing_list"": [""PLAIN"", ""GLACIER"", ""BEECH"", ""ANTELOPE"", ""VOLCANO"", ""POPLAR"", ""STREAM"", ""FOX"", ""ALTERNATIVE""], ""shown_list"": [""PLAIN"", ""GLACIER"", ""BEECH"", ""SHEEP"", ""EUCALYPTUS"", ""ANTELOPE"", ""WILLOW"", ""SQUIRREL"", ""VOLCANO"", ""POP"", ""SYMPHONY"", ""POPLAR"", ""STREAM"", ""FOX"", ""ALTERNATIVE"", ""GOSPEL""], ""num_correct"": 7, ""instructions"": false, ""times"": [3159, 2058, 9469, 1099, 3971, 1318, 2349, 4470, 5723, 3206], ""correct_sizes"": true, ""used_time"": 38226, ""list_type"": ""categorized_16_8"", ""trial_type"": ""text-recall"", ""trial_index"": 37, ""time_elapsed"": 816073, ""internal_node_id"": ""0.0-27.0"", ""mode"": ""pilot"", ""subject_cond"": ""9"", ""exp"": ""expAv3""}"
debugqhzqd:debugDUpJ5,2,1.64E+12,"{""type"": ""reminder"", ""success"": false, ""recalled_list"": [""POPLAR"", ""STREAM"", ""FOX"", ""ALTERNATIVE"", """", """"], ""matching_list"": [""STREAM"", ""FOX"", ""ALTERNATIVE""], ""missing_list"": [""PLAIN"", ""GLACIER"", ""BEECH"", ""ANTELOPE"", ""VOLCANO""], ""shown_list"": [""PLAIN"", ""GLACIER"", ""BEECH"", ""SHEEP"", ""EUCALYPTUS"", ""ANTELOPE"", ""WILLOW"", ""SQUIRREL"", ""VOLCANO"", ""POP"", ""SYMPHONY"", ""POPLAR"", ""STREAM"", ""FOX"", ""ALTERNATIVE"", ""GOSPEL""], ""num_correct"": 3, ""instructions"": false, ""times"": [2281, 6223, 809, 5035, 8571, 16901], ""reminder"": ""POPLAR"", ""list_type"": ""categorized_16_8"", ""trial_type"": ""reminder"", ""trial_index"": 38, ""time_elapsed"": 872154, ""internal_node_id"": ""0.0-28.0"", ""mode"": ""pilot"", ""subject_cond"": ""9"", ""exp"": ""expAv3""}"
debugqhzqd:debugDUpJ5,3,1.64E+12,"{""type"": ""text-recall"", ""success"": false, ""recalled_list"": [""WOLF"", ""PIG"", ""MOOSE"", ""ATTIC"", ""BLIZZARD"", ""RAIN"", ""FLOOD""], ""matching_list"": [""WOLF"", ""PIG"", ""MOOSE"", ""ATTIC"", ""BLIZZARD"", ""RAIN"", ""FLOOD""], ""missing_list"": [""WING"", ""VALLEY"", ""BEAR"", ""FROST"", ""FLOOR"", ""ROOM"", ""OCEAN"", ""GORGE"", ""LAKE""], ""shown_list"": [""WOLF"", ""WING"", ""VALLEY"", ""BLIZZARD"", ""BEAR"", ""FLOOD"", ""FROST"", ""FLOOR"", ""ROOM"", ""OCEAN"", ""GORGE"", ""MOOSE"", ""PIG"", ""ATTIC"", ""RAIN"", ""LAKE""], ""num_correct"": 7, ""instructions"": false, ""times"": [2156, 1149, 1029, 1169, 2902, 1254, 1229], ""correct_sizes"": true, ""used_time"": 13294, ""list_type"": ""categorized_16_9"", ""trial_type"": ""text-recall"", ""trial_index"": 41, ""time_elapsed"": 957841, ""internal_node_id"": ""0.0-31.0"", ""mode"": ""pilot"", ""subject_cond"": ""9"", ""exp"": ""expAv3""}"
debugqhzqd:debugDUpJ5,4,1.64E+12,"{""type"": ""reminder"", ""success"": false, ""recalled_list"": [""BEAR"", ""WING"", """"], ""matching_list"": [""BEAR""], ""missing_list"": [""VALLEY"", ""FROST"", ""FLOOR"", ""ROOM"", ""OCEAN"", ""GORGE"", ""LAKE""], ""shown_list"": [""WOLF"", ""WING"", ""VALLEY"", ""BLIZZARD"", ""BEAR"", ""FLOOD"", ""FROST"", ""FLOOR"", ""ROOM"", ""OCEAN"", ""GORGE"", ""MOOSE"", ""PIG"", ""ATTIC"", ""RAIN"", ""LAKE""], ""num_correct"": 1, ""instructions"": false, ""times"": [1630, 800, 35559], ""reminder"": ""WING"", ""list_type"": ""categorized_16_9"", ""trial_type"": ""reminder"", ""trial_index"": 42, ""time_elapsed"": 1038479, ""internal_node_id"": ""0.0-32.0"", ""mode"": ""pilot"", ""subject_cond"": ""9"", ""exp"": ""expAv3""}"
debugqhzqd:debugDUpJ5,5,1.64E+12,"{""type"": ""text-recall"", ""success"": false, ""recalled_list"": [""CLIFF"", ""BOLT"", ""RIVER"", ""DRILL"", ""WATERFALL"", ""PENCIL"", ""FIDDLE"", ""HARMONICA"", ""SPARROW"", ""AXE"", ""SWAN"", ""DUCK"", """", """", """", """", """", """", """"], ""matching_list"": [""CLIFF"", ""BOLT"", ""RIVER"", ""DRILL"", ""WATERFALL"", ""PENCIL"", ""FIDDLE"", ""HARMONICA"", ""SPARROW"", ""AXE"", ""SWAN"", ""DUCK""], ""missing_list"": [""RIDGE"", ""CLARINET"", ""VULTURE"", ""BANJO""], ""shown_list"": [""RIDGE"", ""CLARINET"", ""CLIFF"", ""BOLT"", ""RIVER"", ""DRILL"", ""WATERFALL"", ""PENCIL"", ""FIDDLE"", ""HARMONICA"", ""SPARROW"", ""AXE"", ""DUCK"", ""VULTURE"", ""BANJO"", ""SWAN""], ""num_correct"": 12, ""instructions"": false, ""times"": [12146, 2876, 1883, 3043, 4115, 2228, 4604, 2952, 2712, 3761, 1353, 999, 13795, 1483, 165, 180, 170, 184, 170], ""correct_sizes"": true, ""used_time"": 60326, ""list_type"": ""categorized_16_7"", ""trial_type"": ""text-recall"", ""trial_index"": 45, ""time_elapsed"": 1172239, ""internal_node_id"": ""0.0-35.0"", ""mode"": ""pilot"", ""subject_cond"": ""9"", ""exp"": ""expAv3""}"
debugqhzqd:debugDUpJ5,6,1.64E+12,"{""type"": ""reminder"", ""success"": false, ""recalled_list"": [""RIDGE"", """", """"], ""matching_list"": [], ""missing_list"": [""CLARINET"", ""VULTURE"", ""BANJO""], ""shown_list"": [""RIDGE"", ""CLARINET"", ""CLIFF"", ""BOLT"", ""RIVER"", ""DRILL"", ""WATERFALL"", ""PENCIL"", ""FIDDLE"", ""HARMONICA"", ""SPARROW"", ""AXE"", ""DUCK"", ""VULTURE"", ""BANJO"", ""SWAN""], ""num_correct"": 0, ""instructions"": false, ""times"": [2276, 276, 21264], ""reminder"": ""RIDGE"", ""list_type"": ""categorized_16_7"", ""trial_type"": ""reminder"", ""trial_index"": 46, ""time_elapsed"": 1206207, ""internal_node_id"": ""0.0-36.0"", ""mode"": ""pilot"", ""subject_cond"": ""9"", ""exp"": ""expAv3""}"
debugqhzqd:debugDUpJ5,7,1.64E+12,"{""type"": ""text-recall"", ""success"": false, ""recalled_list"": [""TRACKBOAT"", ""STEAMBOAT"", ""BUNGALOW"", ""WRESTLING""], ""matching_list"": [""STEAMBOAT"", ""BUNGALOW"", ""WRESTLING""], ""missing_list"": [""TRACK"", ""DORMITORY"", ""MANSION"", ""FINCH"", ""DESTROYER"", ""COTTAGE"", ""HANDBALL"", ""BATTLESHIP"", ""CROW"", ""PEACOCK"", ""FALCON"", ""FERRY"", ""SWIMMING""], ""shown_list"": [""TRACK"", ""DORMITORY"", ""BUNGALOW"", ""STEAMBOAT"", ""MANSION"", ""FINCH"", ""DESTROYER"", ""COTTAGE"", ""HANDBALL"", ""BATTLESHIP"", ""CROW"", ""PEACOCK"", ""FALCON"", ""WRESTLING"", ""FERRY"", ""SWIMMING""], ""num_correct"": 3, ""instructions"": false, ""times"": [4726, 2892, 3521, 6602], ""correct_sizes"": true, ""used_time"": 38779, ""list_type"": ""categorized_16_2"", ""trial_type"": ""text-recall"", ""trial_index"": 49, ""time_elapsed"": 1301502, ""internal_node_id"": ""0.0-39.0"", ""mode"": ""pilot"", ""subject_cond"": ""9"", ""exp"": ""expAv3""}"
debugqhzqd:debugDUpJ5,8,1.64E+12,"{""type"": ""reminder"", ""success"": false, ""recalled_list"": [""SWIMMING"", """"], ""matching_list"": [], ""missing_list"": [""TRACK"", ""DORMITORY"", ""MANSION"", ""FINCH"", ""DESTROYER"", ""COTTAGE"", ""HANDBALL"", ""BATTLESHIP"", ""CROW"", ""PEACOCK"", ""FALCON"", ""FERRY""], ""shown_list"": [""TRACK"", ""DORMITORY"", ""BUNGALOW"", ""STEAMBOAT"", ""MANSION"", ""FINCH"", ""DESTROYER"", ""COTTAGE"", ""HANDBALL"", ""BATTLESHIP"", ""CROW"", ""PEACOCK"", ""FALCON"", ""WRESTLING"", ""FERRY"", ""SWIMMING""], ""num_correct"": 0, ""instructions"": false, ""times"": [4011, 25073], ""reminder"": ""SWIMMING"", ""list_type"": ""categorized_16_2"", ""trial_type"": ""reminder"", ""trial_index"": 50, ""time_elapsed"": 1357162, ""internal_node_id"": ""0.0-40.0"", ""mode"": ""pilot"", ""subject_cond"": ""9"", ""exp"": ""expAv3""}"
debugqhzqd:debugDUpJ5,9,1.64E+12,"{""type"": ""text-recall"", ""success"": false, ""recalled_list"": [""ISLAND"", ""BEETLE"", ""BUTTERFLY"", ""CANYON"", ""NUCLEAR"", ""MOTH"", ""WASPS"", ""WASP"", ""ELECTRICITY"", ""BATHROOM""], ""matching_list"": [""ISLAND"", ""BEETLE"", ""BUTTERFLY"", ""CANYON"", ""NUCLEAR"", ""WASP"", ""ELECTRICITY"", ""BATHROOM""], ""missing_list"": [""ROOF"", ""SEA"", ""CEILING"", ""STEAM"", ""CAVE"", ""WORM"", ""WATER"", ""CELLAR""], ""shown_list"": [""BEETLE"", ""BUTTERFLY"", ""ROOF"", ""WASP"", ""ELECTRICITY"", ""SEA"", ""ISLAND"", ""BATHROOM"", ""CEILING"", ""STEAM"", ""NUCLEAR"", ""CAVE"", ""WORM"", ""WATER"", ""CANYON"", ""CELLAR""], ""num_correct"": 8, ""instructions"": false, ""times"": [1872, 1363, 1824, 3667, 9755, 14404, 2642, 1883, 6328, 3056], ""correct_sizes"": true, ""used_time"": 48146, ""list_type"": ""categorized_16_0"", ""trial_type"": ""text-recall"", ""trial_index"": 53, ""time_elapsed"": 1468712, ""internal_node_id"": ""0.0-43.0"", ""mode"": ""pilot"", ""subject_cond"": ""9"", ""exp"": ""expAv3""}"
debugqhzqd:debugDUpJ5,10,1.64E+12,"{""type"": ""reminder"", ""success"": false, ""recalled_list"": [""STEAM"", """"], ""matching_list"": [], ""missing_list"": [""ROOF"", ""SEA"", ""CEILING"", ""CAVE"", ""WORM"", ""WATER"", ""CELLAR""], ""shown_list"": [""BEETLE"", ""BUTTERFLY"", ""ROOF"", ""WASP"", ""ELECTRICITY"", ""SEA"", ""ISLAND"", ""BATHROOM"", ""CEILING"", ""STEAM"", ""NUCLEAR"", ""CAVE"", ""WORM"", ""WATER"", ""CANYON"", ""CELLAR""], ""num_correct"": 0, ""instructions"": false, ""times"": [1940, 22429], ""reminder"": ""STEAM"", ""list_type"": ""categorized_16_0"", ""trial_type"": ""reminder"", ""trial_index"": 54, ""time_elapsed"": 1515204, ""internal_node_id"": ""0.0-44.0"", ""mode"": ""pilot"", ""subject_cond"": ""9"", ""exp"": ""expAv3""}"
debugqhzqd:debugDUpJ5,11,1.64E+12,"{""type"": ""text-recall"", ""success"": false, ""recalled_list"": [""CHERRY"", ""GINGER"", ""PLUM"", ""SUNSHINE"", ""BLOCKS"", ""FIG"", ""MANGO~""], ""matching_list"": [""CHERRY"", ""GINGER"", ""PLUM"", ""SUNSHINE"", ""BLOCKS"", ""FIG""], ""missing_list"": [""BALL"", ""THUNDER"", ""VANILLA"", ""SUGAR"", ""SAGE"", ""KITE"", ""MANGO"", ""MONSOON"", ""FOG"", ""PUZZLE""], ""shown_list"": [""CHERRY"", ""PLUM"", ""GINGER"", ""BALL"", ""THUNDER"", ""SUNSHINE"", ""BLOCKS"", ""VANILLA"", ""SUGAR"", ""SAGE"", ""KITE"", ""MANGO"", ""MONSOON"", ""FOG"", ""FIG"", ""PUZZLE""], ""num_correct"": 6, ""instructions"": false, ""times"": [5435, 2731, 3801, 1953, 2397, 1963, 8557], ""correct_sizes"": false, ""used_time"": 28066, ""list_type"": ""categorized_16_1"", ""trial_type"": ""text-recall"", ""trial_index"": 57, ""time_elapsed"": 1616806, ""internal_node_id"": ""0.0-47.0"", ""mode"": ""pilot"", ""subject_cond"": ""9"", ""exp"": ""expAv3""}"
debugqhzqd:debugDUpJ5,12,1.64E+12,"{""type"": ""reminder"", ""success"": false, ""recalled_list"": [""KITE"", """", """", """", """", """", ""KITE""], ""matching_list"": [], ""missing_list"": [""BALL"", ""THUNDER"", ""VANILLA"", ""SUGAR"", ""SAGE"", ""MANGO"", ""MONSOON"", ""FOG"", ""PUZZLE""], ""shown_list"": [""CHERRY"", ""PLUM"", ""GINGER"", ""BALL"", ""THUNDER"", ""SUNSHINE"", ""BLOCKS"", ""VANILLA"", ""SUGAR"", ""SAGE"", ""KITE"", ""MANGO"", ""MONSOON"", ""FOG"", ""FIG"", ""PUZZLE""], ""num_correct"": 0, ""instructions"": false, ""times"": [2948, 49036, 190, 165, 204, 200, 2797], ""reminder"": ""KITE"", ""list_type"": ""categorized_16_1"", ""trial_type"": ""reminder"", ""trial_index"": 58, ""time_elapsed"": 1682748, ""internal_node_id"": ""0.0-48.0"", ""mode"": ""pilot"", ""subject_cond"": ""9"", ""exp"": ""expAv3""}"
debugqhzqd:debugDUpJ5,13,1.64E+12,"{""type"": ""text-recall"", ""success"": false, ""recalled_list"": [""ENCYCOLPEDIA"", ""RABBIT"", ""TIGER"", ""PAPER"", ""MANUSCRIPT"", ""TRAIN"", ""PAPER"", ""LIZARD""], ""matching_list"": [""ENCYCLOPEDIA"", ""RABBIT"", ""TIGER"", ""PAPER"", ""MANUSCRIPT"", ""TRAIN"", ""LIZARD""], ""missing_list"": [""KITCHEN"", ""MOTORCYCLE"", ""JET"", ""TURTLE"", ""ESSAY"", ""LOBBY"", ""TRACTOR"", ""ENTRANCE"", ""ELEVATOR""], ""shown_list"": [""KITCHEN"", ""MANUSCRIPT"", ""RABBIT"", ""MOTORCYCLE"", ""JET"", ""TURTLE"", ""ESSAY"", ""ENCYCLOPEDIA"", ""LOBBY"", ""TRACTOR"", ""PAPER"", ""TIGER"", ""ENTRANCE"", ""LIZARD"", ""TRAIN"", ""ELEVATOR""], ""num_correct"": 7, ""instructions"": false, ""times"": [6649, 2158, 1120, 968, 1598, 2788, 1144, 1812], ""correct_sizes"": true, ""used_time"": 22938, ""list_type"": ""categorized_16_5"", ""trial_type"": ""text-recall"", ""trial_index"": 61, ""time_elapsed"": 1762979, ""internal_node_id"": ""0.0-51.0"", ""mode"": ""pilot"", ""subject_cond"": ""9"", ""exp"": ""expAv3""}"
debugqhzqd:debugDUpJ5,14,1.64E+12,"{""type"": ""reminder"", ""success"": false, ""recalled_list"": [""ESSAY"", """"], ""matching_list"": [], ""missing_list"": [""KITCHEN"", ""MOTORCYCLE"", ""JET"", ""TURTLE"", ""LOBBY"", ""TRACTOR"", ""ENTRANCE"", ""ELEVATOR""], ""shown_list"": [""KITCHEN"", ""MANUSCRIPT"", ""RABBIT"", ""MOTORCYCLE"", ""JET"", ""TURTLE"", ""ESSAY"", ""ENCYCLOPEDIA"", ""LOBBY"", ""TRACTOR"", ""PAPER"", ""TIGER"", ""ENTRANCE"", ""LIZARD"", ""TRAIN"", ""ELEVATOR""], ""num_correct"": 0, ""instructions"": false, ""times"": [3079, 34692], ""reminder"": ""ESSAY"", ""list_type"": ""categorized_16_5"", ""trial_type"": ""reminder"", ""trial_index"": 62, ""time_elapsed"": 1834129, ""internal_node_id"": ""0.0-52.0"", ""mode"": ""pilot"", ""subject_cond"": ""9"", ""exp"": ""expAv3""}"
debugqhzqd:debugDUpJ5,15,1.64E+12,"{""type"": ""text-recall"", ""success"": false, ""recalled_list"": [""PITCHFORK"", ""HOSE"", ""LACE"", ""LINEN"", ""CLOTH"", ""CABINET""], ""matching_list"": [""PITCHFORK"", ""HOSE"", ""LACE"", ""LINEN"", ""CLOTH"", ""CABINET""], ""missing_list"": [""OTTOMAN"", ""DROUGHT"", ""GALE"", ""CYCLONE"", ""BUCKET"", ""EARTHQUAKE"", ""DESK"", ""CLIPPERS"", ""FELT"", ""LAMP""], ""shown_list"": [""OTTOMAN"", ""HOSE"", ""DROUGHT"", ""GALE"", ""CYCLONE"", ""BUCKET"", ""PITCHFORK"", ""LACE"", ""LINEN"", ""EARTHQUAKE"", ""DESK"", ""CLIPPERS"", ""FELT"", ""LAMP"", ""CLOTH"", ""CABINET""], ""num_correct"": 6, ""instructions"": false, ""times"": [2692, 749, 749, 1099, 1555, 9137], ""correct_sizes"": true, ""used_time"": 17125, ""list_type"": ""categorized_16_3"", ""trial_type"": ""text-recall"", ""trial_index"": 65, ""time_elapsed"": 2022570, ""internal_node_id"": ""0.0-55.0"", ""mode"": ""pilot"", ""subject_cond"": ""9"", ""exp"": ""expAv3""}"
debugqhzqd:debugDUpJ5,16,1.64E+12,"{""type"": ""reminder"", ""success"": false, ""recalled_list"": [""FELT"", ""HAY""], ""matching_list"": [], ""missing_list"": [""OTTOMAN"", ""DROUGHT"", ""GALE"", ""CYCLONE"", ""BUCKET"", ""EARTHQUAKE"", ""DESK"", ""CLIPPERS"", ""LAMP""], ""shown_list"": [""OTTOMAN"", ""HOSE"", ""DROUGHT"", ""GALE"", ""CYCLONE"", ""BUCKET"", ""PITCHFORK"", ""LACE"", ""LINEN"", ""EARTHQUAKE"", ""DESK"", ""CLIPPERS"", ""FELT"", ""LAMP"", ""CLOTH"", ""CABINET""], ""num_correct"": 0, ""instructions"": false, ""times"": [2021, 619], ""reminder"": ""FELT"", ""list_type"": ""categorized_16_3"", ""trial_type"": ""reminder"", ""trial_index"": 66, ""time_elapsed"": 2099332, ""internal_node_id"": ""0.0-56.0"", ""mode"": ""pilot"", ""subject_cond"": ""9"", ""exp"": ""expAv3""}"
debugqhzqd:debugDUpJ5,17,1.64E+12,"{""type"": ""text-recall"", ""success"": false, ""recalled_list"": [""CLOUDS"", ""WINDY"", ""TECHNO"", ""CLARK"", ""SHARK"", ""WINDY"", ""REGGAE"", ""TYPHOON"", ""TUNA""], ""matching_list"": [""CLOUDS"", ""TECHNO"", ""SHARK"", ""REGGAE"", ""TYPHOON"", ""TUNA""], ""missing_list"": [""CARP"", ""TSUNAMI"", ""LETTER"", ""BOOKLET"", ""CATFISH"", ""PAMPHLET"", ""WIND"", ""REPORT"", ""SKA"", ""BLUES""], ""shown_list"": [""CLOUDS"", ""REGGAE"", ""TECHNO"", ""CARP"", ""TSUNAMI"", ""SHARK"", ""LETTER"", ""TUNA"", ""BOOKLET"", ""CATFISH"", ""PAMPHLET"", ""TYPHOON"", ""WIND"", ""REPORT"", ""SKA"", ""BLUES""], ""num_correct"": 6, ""instructions"": false, ""times"": [2064, 1283, 2958, 1089, 799, 3821, 1224, 3781, 855], ""correct_sizes"": true, ""used_time"": 19143, ""list_type"": ""categorized_16_6"", ""trial_type"": ""text-recall"", ""trial_index"": 69, ""time_elapsed"": 2207086, ""internal_node_id"": ""0.0-59.0"", ""mode"": ""pilot"", ""subject_cond"": ""9"", ""exp"": ""expAv3""}"
debugqhzqd:debugDUpJ5,18,1.64E+12,"{""type"": ""reminder"", ""success"": false, ""recalled_list"": [""CATFISH"", """", """"], ""matching_list"": [], ""missing_list"": [""CARP"", ""TSUNAMI"", ""LETTER"", ""BOOKLET"", ""PAMPHLET"", ""WIND"", ""REPORT"", ""SKA"", ""BLUES""], ""shown_list"": [""CLOUDS"", ""REGGAE"", ""TECHNO"", ""CARP"", ""TSUNAMI"", ""SHARK"", ""LETTER"", ""TUNA"", ""BOOKLET"", ""CATFISH"", ""PAMPHLET"", ""TYPHOON"", ""WIND"", ""REPORT"", ""SKA"", ""BLUES""], ""num_correct"": 0, ""instructions"": false, ""times"": [8215, 42067, 12942], ""reminder"": ""CATFISH"", ""list_type"": ""categorized_16_6"", ""trial_type"": ""reminder"", ""trial_index"": 70, ""time_elapsed"": 2282159, ""internal_node_id"": ""0.0-60.0"", ""mode"": ""pilot"", ""subject_cond"": ""9"", ""exp"": ""expAv3""}"
debugqhzqd:debugDUpJ5,19,1.64E+12,"{""type"": ""text-recall"", ""success"": false, ""recalled_list"": [""BROWN"", ""HILL"", ""CAT"", ""MOUSE"", ""RAT"", ""INDIGO"", ""GREY""], ""matching_list"": [""BROWN"", ""HILL"", ""MOUSE"", ""RAT"", ""INDIGO""], ""missing_list"": [""SOUL"", ""BLUEGRASS"", ""INSTRUMENTAL"", ""POND"", ""GRAY"", ""BUFFALO"", ""GOAT"", ""OPERA"", ""FAULT"", ""CRIMSON"", ""RAVINE""], ""shown_list"": [""SOUL"", ""BLUEGRASS"", ""INSTRUMENTAL"", ""POND"", ""GRAY"", ""BUFFALO"", ""GOAT"", ""OPERA"", ""BROWN"", ""FAULT"", ""CRIMSON"", ""RAVINE"", ""HILL"", ""MOUSE"", ""INDIGO"", ""RAT""], ""num_correct"": 5, ""instructions"": false, ""times"": [7782, 2177, 3082, 1029, 744, 1599, 2737], ""correct_sizes"": true, ""used_time"": 21421, ""list_type"": ""categorized_16_4"", ""trial_type"": ""text-recall"", ""trial_index"": 73, ""time_elapsed"": 2358658, ""internal_node_id"": ""0.0-63.0"", ""mode"": ""pilot"", ""subject_cond"": ""9"", ""exp"": ""expAv3""}"
debugqhzqd:debugDUpJ5,20,1.64E+12,"{""type"": ""reminder"", ""success"": false, ""recalled_list"": [""""], ""matching_list"": [], ""missing_list"": [""SOUL"", ""BLUEGRASS"", ""INSTRUMENTAL"", ""POND"", ""GRAY"", ""BUFFALO"", ""GOAT"", ""OPERA"", ""FAULT"", ""CRIMSON""], ""shown_list"": [""SOUL"", ""BLUEGRASS"", ""INSTRUMENTAL"", ""POND"", ""GRAY"", ""BUFFALO"", ""GOAT"", ""OPERA"", ""BROWN"", ""FAULT"", ""CRIMSON"", ""RAVINE"", ""HILL"", ""MOUSE"", ""INDIGO"", ""RAT""], ""num_correct"": 0, ""instructions"": false, ""times"": [35425], ""reminder"": ""RAVINE"", ""list_type"": ""categorized_16_4"", ""trial_type"": ""reminder"", ""trial_index"": 74, ""time_elapsed"": 2431464, ""internal_node_id"": ""0.0-64.0"", ""mode"": ""pilot"", ""subject_cond"": ""9"", ""exp"": ""expAv3""}"
debugqhzqd:debugDUpJ5,21,1.64E+12,"{""type"": ""survey-text"", ""responses"": ""{\""Q0\"":\""\""}"", ""trial_type"": ""survey-text"", ""trial_index"": 77, ""time_elapsed"": 2458325, ""internal_node_id"": ""0.0-67.0"", ""mode"": ""pilot"", ""subject_cond"": ""9"", ""exp"": ""expAv3""}"
debugqhzqd:debugDUpJ5,22,1.64E+12,"{""id"": ""debugqhzqd:debugDUpJ5"", ""type"": ""total-points"", ""total_points"": 73}"
debugDZntQ:debugGz0Ox,0,1.64E+12,"{""type"": ""survey-text"", ""responses"": ""{\""Q0\"":\""601991785f17dd0cf89e3760\""}"", ""trial_type"": ""survey-text"", ""trial_index"": 0, ""time_elapsed"": 19848, ""internal_node_id"": ""0.0-0.0"", ""mode"": ""pilot"", ""subject_cond"": ""2"", ""exp"": ""expAv3""}"
debugDZntQ:debugGz0Ox,1,1.64E+12,"{""type"": ""text-recall"", ""success"": false, ""recalled_list"": [""FIR"", ""ANTELOPE"", ""CLOUDS"", ""TURTLE"", ""NOVEL"", ""CEDAR"", ""SQUIRREL"", ""WIND"", ""BUFFALO"", ""NOTE"", ""MANUSCRIPT"", ""PAMPHLET"", ""ELM"", ""POPLAR""], ""matching_list"": [""FIR"", ""ANTELOPE"", ""CLOUDS"", ""TURTLE"", ""NOVEL"", ""CEDAR"", ""SQUIRREL"", ""WIND"", ""BUFFALO"", ""NOTE"", ""MANUSCRIPT"", ""PAMPHLET"", ""ELM"", ""POPLAR""], ""missing_list"": [""DROUGHT"", ""TYPHOON""], ""shown_list"": [""POPLAR"", ""ELM"", ""DROUGHT"", ""TYPHOON"", ""PAMPHLET"", ""MANUSCRIPT"", ""NOTE"", ""BUFFALO"", ""WIND"", ""SQUIRREL"", ""CEDAR"", ""NOVEL"", ""TURTLE"", ""CLOUDS"", ""FIR"", ""ANTELOPE""], ""num_correct"": 14, ""instructions"": false, ""times"": [4057, 3788, 5612, 5680, 3562, 3111, 6489, 2683, 4487, 2515, 6389, 6201, 3805, 3326], ""correct_sizes"": true, ""used_time"": 65878, ""list_type"": ""categorized_16_8"", ""trial_type"": ""text-recall"", ""trial_index"": 31, ""time_elapsed"": 775361, ""internal_node_id"": ""0.0-27.0"", ""mode"": ""pilot"", ""subject_cond"": ""2"", ""exp"": ""expAv3""}"
debugDZntQ:debugGz0Ox,2,1.64E+12,"{""type"": ""reminder"", ""success"": false, ""recalled_list"": [""TYPHOON""], ""matching_list"": [], ""missing_list"": [""DROUGHT""], ""shown_list"": [""POPLAR"", ""ELM"", ""DROUGHT"", ""TYPHOON"", ""PAMPHLET"", ""MANUSCRIPT"", ""NOTE"", ""BUFFALO"", ""WIND"", ""SQUIRREL"", ""CEDAR"", ""NOVEL"", ""TURTLE"", ""CLOUDS"", ""FIR"", ""ANTELOPE""], ""num_correct"": 0, ""instructions"": false, ""times"": [3486], ""reminder"": ""TYPHOON"", ""list_type"": ""categorized_16_8"", ""trial_type"": ""reminder"", ""trial_index"": 32, ""time_elapsed"": 803231, ""internal_node_id"": ""0.0-28.0"", ""mode"": ""pilot"", ""subject_cond"": ""2"", ""exp"": ""expAv3""}"
debugDZntQ:debugGz0Ox,3,1.64E+12,"{""type"": ""text-recall"", ""success"": false, ""recalled_list"": [""JEANS"", ""SYMPHONY"", ""PUNK"", ""HAT"", ""HUT"", ""OPERA"", ""MANSION""], ""matching_list"": [""JEANS"", ""SYMPHONY"", ""PUNK"", ""HAT"", ""HUT"", ""OPERA"", ""MANSION""], ""missing_list"": [""EUCALYPTUS"", ""REDWOOD"", ""BUNGALOW"", ""SHORTS"", ""EVERGREEN"", ""ALTERNATIVE"", ""DORMITORY"", ""SUIT"", ""MAPLE""], ""shown_list"": [""EUCALYPTUS"", ""REDWOOD"", ""BUNGALOW"", ""SHORTS"", ""HAT"", ""HUT"", ""OPERA"", ""MANSION"", ""EVERGREEN"", ""ALTERNATIVE"", ""DORMITORY"", ""SUIT"", ""MAPLE"", ""PUNK"", ""SYMPHONY"", ""JEANS""], ""num_correct"": 7, ""instructions"": false, ""times"": [8336, 4628, 3670, 5539, 1095, 3974, 5132], ""correct_sizes"": true, ""used_time"": 43689, ""list_type"": ""categorized_16_5"", ""trial_type"": ""text-recall"", ""trial_index"": 35, ""time_elapsed"": 910062, ""internal_node_id"": ""0.0-31.0"", ""mode"": ""pilot"", ""subject_cond"": ""2"", ""exp"": ""expAv3""}"
debugDZntQ:debugGz0Ox,4,1.64E+12,"{""type"": ""reminder"", ""success"": false, ""recalled_list"": [""REDWOOD""], ""matching_list"": [], ""missing_list"": [""EUCALYPTUS"", ""BUNGALOW"", ""SHORTS"", ""EVERGREEN"", ""ALTERNATIVE"", ""DORMITORY"", ""SUIT"", ""MAPLE""], ""shown_list"": [""EUCALYPTUS"", ""REDWOOD"", ""BUNGALOW"", ""SHORTS"", ""HAT"", ""HUT"", ""OPERA"", ""MANSION"", ""EVERGREEN"", ""ALTERNATIVE"", ""DORMITORY"", ""SUIT"", ""MAPLE"", ""PUNK"", ""SYMPHONY"", ""JEANS""], ""num_correct"": 0, ""instructions"": false, ""times"": [3591], ""reminder"": ""REDWOOD"", ""list_type"": ""categorized_16_5"", ""trial_type"": ""reminder"", ""trial_index"": 36, ""time_elapsed"": 960208, ""internal_node_id"": ""0.0-32.0"", ""mode"": ""pilot"", ""subject_cond"": ""2"", ""exp"": ""expAv3""}"
debugDZntQ:debugGz0Ox,5,1.64E+12,"{""type"": ""text-recall"", ""success"": false, ""recalled_list"": [""CHICKEN"", ""DOVE"", ""SWAN"", ""BLOCKS"", ""SUNSHINE"", ""VULTURE"", ""HAIL"", ""RAIN"", ""CLOTH"", ""KITE"", ""BALL"", ""FELT"", ""LACE""], ""matching_list"": [""CHICKEN"", ""DOVE"", ""SWAN"", ""BLOCKS"", ""SUNSHINE"", ""VULTURE"", ""HAIL"", ""RAIN"", ""CLOTH"", ""KITE"", ""BALL"", ""FELT"", ""LACE""], ""missing_list"": [""VELVET"", ""PUZZLE"", ""FLOOD""], ""shown_list"": [""LACE"", ""FELT"", ""BALL"", ""VELVET"", ""KITE"", ""CLOTH"", ""PUZZLE"", ""RAIN"", ""FLOOD"", ""HAIL"", ""VULTURE"", ""SUNSHINE"", ""BLOCKS"", ""SWAN"", ""DOVE"", ""CHICKEN""], ""num_correct"": 13, ""instructions"": false, ""times"": [13902, 3525, 2508, 6373, 2585, 4172, 3034, 3337, 3364, 3101, 3418, 2875, 2895], ""correct_sizes"": true, ""used_time"": 56891, ""list_type"": ""categorized_16_2"", ""trial_type"": ""text-recall"", ""trial_index"": 39, ""time_elapsed"": 1085632, ""internal_node_id"": ""0.0-35.0"", ""mode"": ""pilot"", ""subject_cond"": ""2"", ""exp"": ""expAv3""}"
debugDZntQ:debugGz0Ox,6,1.64E+12,"{""type"": ""reminder"", ""success"": false, ""recalled_list"": [""VELVET""], ""matching_list"": [], ""missing_list"": [""PUZZLE"", ""FLOOD""], ""shown_list"": [""LACE"", ""FELT"", ""BALL"", ""VELVET"", ""KITE"", ""CLOTH"", ""PUZZLE"", ""RAIN"", ""FLOOD"", ""HAIL"", ""VULTURE"", ""SUNSHINE"", ""BLOCKS"", ""SWAN"", ""DOVE"", ""CHICKEN""], ""num_correct"": 0, ""instructions"": false, ""times"": [3603], ""reminder"": ""VELVET"", ""list_type"": ""categorized_16_2"", ""trial_type"": ""reminder"", ""trial_index"": 40, ""time_elapsed"": 1122615, ""internal_node_id"": ""0.0-36.0"", ""mode"": ""pilot"", ""subject_cond"": ""2"", ""exp"": ""expAv3""}"
debugDZntQ:debugGz0Ox,7,1.64E+12,"{""type"": ""text-recall"", ""success"": false, ""recalled_list"": [""CHERRY"", ""TIE"", ""MANGO"", ""CAMEL"", ""BUCKET"", ""COW"", ""SEEDS"", ""GRAPE"", ""DONKEY"", ""FIG"", ""HOSE"", ""ELK""], ""matching_list"": [""CHERRY"", ""TIE"", ""MANGO"", ""CAMEL"", ""BUCKET"", ""COW"", ""SEEDS"", ""GRAPE"", ""DONKEY"", ""FIG"", ""HOSE"", ""ELK""], ""missing_list"": [""SLIP"", ""SKIRT"", ""SOIL"", ""JACKET""], ""shown_list"": [""SLIP"", ""ELK"", ""HOSE"", ""FIG"", ""SKIRT"", ""SOIL"", ""DONKEY"", ""GRAPE"", ""SEEDS"", ""JACKET"", ""COW"", ""BUCKET"", ""CAMEL"", ""MANGO"", ""TIE"", ""CHERRY""], ""num_correct"": 12, ""instructions"": false, ""times"": [6069, 2759, 3447, 4439, 4332, 2241, 6019, 3077, 3913, 4368, 2596, 2691], ""correct_sizes"": true, ""used_time"": 46921, ""list_type"": ""categorized_16_0"", ""trial_type"": ""text-recall"", ""trial_index"": 43, ""time_elapsed"": 1240268, ""internal_node_id"": ""0.0-39.0"", ""mode"": ""pilot"", ""subject_cond"": ""2"", ""exp"": ""expAv3""}"
debugDZntQ:debugGz0Ox,8,1.64E+12,"{""type"": ""reminder"", ""success"": false, ""recalled_list"": [""SLIP""], ""matching_list"": [], ""missing_list"": [""SKIRT"", ""SOIL"", ""JACKET""], ""shown_list"": [""SLIP"", ""ELK"", ""HOSE"", ""FIG"", ""SKIRT"", ""SOIL"", ""DONKEY"", ""GRAPE"", ""SEEDS"", ""JACKET"", ""COW"", ""BUCKET"", ""CAMEL"", ""MANGO"", ""TIE"", ""CHERRY""], ""num_correct"": 0, ""instructions"": false, ""times"": [3029], ""reminder"": ""SLIP"", ""list_type"": ""categorized_16_0"", ""trial_type"": ""reminder"", ""trial_index"": 44, ""time_elapsed"": 1287130, ""internal_node_id"": ""0.0-40.0"", ""mode"": ""pilot"", ""subject_cond"": ""2"", ""exp"": ""expAv3""}"
debugDZntQ:debugGz0Ox,9,1.64E+12,"{""type"": ""text-recall"", ""success"": false, ""recalled_list"": [""PIG"", ""RULER"", ""ELEVATOR"", ""BASEMENT"", ""BEAR"", ""LEVEL"", ""SCREW"", ""MOUSE"", ""BATHROOM"", ""WORM"", ""HORNET"", ""TIGER"", ""BOLT""], ""matching_list"": [""PIG"", ""RULER"", ""ELEVATOR"", ""BASEMENT"", ""BEAR"", ""LEVEL"", ""SCREW"", ""MOUSE"", ""BATHROOM"", ""WORM"", ""HORNET"", ""TIGER"", ""BOLT""], ""missing_list"": [""BUTTERFLY"", ""WASP"", ""CLOSET""], ""shown_list"": [""BOLT"", ""TIGER"", ""BUTTERFLY"", ""HORNET"", ""WASP"", ""CLOSET"", ""WORM"", ""BATHROOM"", ""MOUSE"", ""SCREW"", ""LEVEL"", ""BEAR"", ""ELEVATOR"", ""BASEMENT"", ""RULER"", ""PIG""], ""num_correct"": 13, ""instructions"": false, ""times"": [3772, 1737, 4480, 7201, 3921, 2795, 2461, 2984, 3536, 2579, 6828, 5076, 2506], ""correct_sizes"": true, ""used_time"": 52162, ""list_type"": ""categorized_16_9"", ""trial_type"": ""text-recall"", ""trial_index"": 47, ""time_elapsed"": 1401401, ""internal_node_id"": ""0.0-43.0"", ""mode"": ""pilot"", ""subject_cond"": ""2"", ""exp"": ""expAv3""}"
debugDZntQ:debugGz0Ox,10,1.64E+12,"{""type"": ""reminder"", ""success"": false, ""recalled_list"": [], ""matching_list"": [], ""missing_list"": [""BUTTERFLY"", ""CLOSET""], ""shown_list"": [""BOLT"", ""TIGER"", ""BUTTERFLY"", ""HORNET"", ""WASP"", ""CLOSET"", ""WORM"", ""BATHROOM"", ""MOUSE"", ""SCREW"", ""LEVEL"", ""BEAR"", ""ELEVATOR"", ""BASEMENT"", ""RULER"", ""PIG""], ""num_correct"": 0, ""instructions"": false, ""times"": [], ""reminder"": ""WASP"", ""list_type"": ""categorized_16_9"", ""trial_type"": ""reminder"", ""trial_index"": 48, ""time_elapsed"": 1442990, ""internal_node_id"": ""0.0-44.0"", ""mode"": ""pilot"", ""subject_cond"": ""2"", ""exp"": ""expAv3""}"
debugDZntQ:debugGz0Ox,11,1.64E+12,"{""type"": ""text-recall"", ""success"": false, ""recalled_list"": [""BATTLESHIP"", ""CATFISH"", ""MAROON"", ""CRIMSON"", ""INDIGO"", ""COD"", ""SCHOONER"", ""BARGE"", ""TAXI"", ""GRAY"", ""VAN"", ""SHARK""], ""matching_list"": [""BATTLESHIP"", ""CATFISH"", ""MAROON"", ""CRIMSON"", ""INDIGO"", ""COD"", ""SCHOONER"", ""BARGE"", ""TAXI"", ""GRAY"", ""VAN"", ""SHARK""], ""missing_list"": [""CARP"", ""SUBWAY"", ""CART"", ""FERRY""], ""shown_list"": [""SHARK"", ""VAN"", ""CARP"", ""SUBWAY"", ""CART"", ""GRAY"", ""CATFISH"", ""TAXI"", ""FERRY"", ""BARGE"", ""SCHOONER"", ""COD"", ""INDIGO"", ""CRIMSON"", ""MAROON"", ""BATTLESHIP""], ""num_correct"": 12, ""instructions"": false, ""times"": [6141, 4286, 2744, 6263, 3570, 2291, 4220, 4070, 4401, 3914, 6208, 1580], ""correct_sizes"": true, ""used_time"": 58465, ""list_type"": ""categorized_16_1"", ""trial_type"": ""text-recall"", ""trial_index"": 51, ""time_elapsed"": 1564691, ""internal_node_id"": ""0.0-47.0"", ""mode"": ""pilot"", ""subject_cond"": ""2"", ""exp"": ""expAv3""}"
debugDZntQ:debugGz0Ox,12,1.64E+12,"{""type"": ""reminder"", ""success"": false, ""recalled_list"": [""SUBWAY""], ""matching_list"": [], ""missing_list"": [""CARP"", ""CART"", ""FERRY""], ""shown_list"": [""SHARK"", ""VAN"", ""CARP"", ""SUBWAY"", ""CART"", ""GRAY"", ""CATFISH"", ""TAXI"", ""FERRY"", ""BARGE"", ""SCHOONER"", ""COD"", ""INDIGO"", ""CRIMSON"", ""MAROON"", ""BATTLESHIP""], ""num_correct"": 0, ""instructions"": false, ""times"": [3548], ""reminder"": ""SUBWAY"", ""list_type"": ""categorized_16_1"", ""trial_type"": ""reminder"", ""trial_index"": 52, ""time_elapsed"": 1599989, ""internal_node_id"": ""0.0-48.0"", ""mode"": ""pilot"", ""subject_cond"": ""2"", ""exp"": ""expAv3""}"
debugDZntQ:debugGz0Ox,13,1.64E+12,"{""type"": ""text-recall"", ""success"": false, ""recalled_list"": [""SKA"", ""SKA"", ""KITCHEN"", ""ENTRANCE"", ""ROOM"", ""TECHNO"", ""FOLK"", ""CROW"", ""CRANE"", ""LOBBY"", ""FIDDLE""], ""matching_list"": [""SKA"", ""KITCHEN"", ""ENTRANCE"", ""ROOM"", ""TECHNO"", ""FOLK"", ""CROW"", ""CRANE"", ""LOBBY"", ""FIDDLE""], ""missing_list"": [""PENGUIN"", ""HARMONICA"", ""INSTRUMENTAL"", ""CLARINET"", ""ACCORDION"", ""FINCH""], ""shown_list"": [""FIDDLE"", ""PENGUIN"", ""LOBBY"", ""HARMONICA"", ""CRANE"", ""INSTRUMENTAL"", ""CLARINET"", ""ACCORDION"", ""FINCH"", ""FOLK"", ""CROW"", ""TECHNO"", ""ROOM"", ""ENTRANCE"", ""SKA"", ""KITCHEN""], ""num_correct"": 10, ""instructions"": false, ""times"": [3372, 1587, 4200, 8850, 2207, 5365, 2959, 2784, 4528, 3271, 6716], ""correct_sizes"": true, ""used_time"": 47743, ""list_type"": ""categorized_16_3"", ""trial_type"": ""text-recall"", ""trial_index"": 55, ""time_elapsed"": 1714913, ""internal_node_id"": ""0.0-51.0"", ""mode"": ""pilot"", ""subject_cond"": ""2"", ""exp"": ""expAv3""}"
debugDZntQ:debugGz0Ox,14,1.64E+12,"{""type"": ""reminder"", ""success"": false, ""recalled_list"": [""INSTRUMENTAL"", ""PENGUIN""], ""matching_list"": [""PENGUIN""], ""missing_list"": [""HARMONICA"", ""CLARINET"", ""ACCORDION"", ""FINCH""], ""shown_list"": [""FIDDLE"", ""PENGUIN"", ""LOBBY"", ""HARMONICA"", ""CRANE"", ""INSTRUMENTAL"", ""CLARINET"", ""ACCORDION"", ""FINCH"", ""FOLK"", ""CROW"", ""TECHNO"", ""ROOM"", ""ENTRANCE"", ""SKA"", ""KITCHEN""], ""num_correct"": 1, ""instructions"": false, ""times"": [6348, 30394], ""reminder"": ""INSTRUMENTAL"", ""list_type"": ""categorized_16_3"", ""trial_type"": ""reminder"", ""trial_index"": 56, ""time_elapsed"": 1761033, ""internal_node_id"": ""0.0-52.0"", ""mode"": ""pilot"", ""subject_cond"": ""2"", ""exp"": ""expAv3""}"
debugDZntQ:debugGz0Ox,15,1.64E+12,"{""type"": ""text-recall"", ""success"": false, ""recalled_list"": [""CELLAR"", ""SOLAR"", ""OWL"", ""DUCK"", ""STEAM"", ""MONSOON"", ""WING"", ""PARROT""], ""matching_list"": [""CELLAR"", ""SOLAR"", ""OWL"", ""DUCK"", ""STEAM"", ""MONSOON"", ""WING"", ""PARROT""], ""missing_list"": [""FLOOR"", ""WATER"", ""TSUNAMI"", ""FOUNDATION"", ""FROST"", ""HAWK"", ""LIGHTNING"", ""ELECTRICITY""], ""shown_list"": [""FLOOR"", ""WATER"", ""TSUNAMI"", ""FOUNDATION"", ""FROST"", ""HAWK"", ""LIGHTNING"", ""ELECTRICITY"", ""PARROT"", ""WING"", ""MONSOON"", ""STEAM"", ""DUCK"", ""CELLAR"", ""OWL"", ""SOLAR""], ""num_correct"": 8, ""instructions"": false, ""times"": [58383, 5123, 2246, 4130, 3241, 5031, 2563, 7508], ""correct_sizes"": true, ""used_time"": 90000, ""list_type"": ""categorized_16_4"", ""trial_type"": ""text-recall"", ""trial_index"": 59, ""time_elapsed"": 1954531, ""internal_node_id"": ""0.0-55.0"", ""mode"": ""pilot"", ""subject_cond"": ""2"", ""exp"": ""expAv3""}"
debugDZntQ:debugGz0Ox,16,1.64E+12,"{""type"": ""reminder"", ""success"": false, ""recalled_list"": [], ""matching_list"": [], ""missing_list"": [], ""shown_list"": [""FLOOR"", ""WATER"", ""TSUNAMI"", ""FOUNDATION"", ""FROST"", ""HAWK"", ""LIGHTNING"", ""ELECTRICITY"", ""PARROT"", ""WING"", ""MONSOON"", ""STEAM"", ""DUCK"", ""CELLAR"", ""OWL"", ""SOLAR""], ""num_correct"": 0, ""instructions"": false, ""times"": [], ""reminder"": """", ""list_type"": ""categorized_16_4"", ""trial_type"": ""reminder"", ""trial_index"": 60, ""time_elapsed"": 1955533, ""internal_node_id"": ""0.0-56.0"", ""mode"": ""pilot"", ""subject_cond"": ""2"", ""exp"": ""expAv3""}"
debugDZntQ:debugGz0Ox,17,1.64E+12,"{""type"": ""text-recall"", ""success"": false, ""recalled_list"": [""HANDBALL"", ""VOLLEYBALL"", ""CABINET"", ""RAVINE"", ""WATERFALL""], ""matching_list"": [""HANDBALL"", ""VOLLEYBALL"", ""CABINET"", ""RAVINE"", ""WATERFALL""], ""missing_list"": [""DESK"", ""BALLROOM"", ""OTTOMAN"", ""RIDGE"", ""SALSA"", ""LAMP"", ""SWING"", ""WRESTLING"", ""VOLCANO"", ""BOWLING"", ""WALTZ""], ""shown_list"": [""DESK"", ""BALLROOM"", ""OTTOMAN"", ""RIDGE"", ""SALSA"", ""LAMP"", ""SWING"", ""WRESTLING"", ""VOLLEYBALL"", ""WATERFALL"", ""VOLCANO"", ""BOWLING"", ""WALTZ"", ""RAVINE"", ""CABINET"", ""HANDBALL""], ""num_correct"": 5, ""instructions"": false, ""times"": [3821, 3969, 2656, 4509, 53113], ""correct_sizes"": true, ""used_time"": 74048, ""list_type"": ""categorized_16_6"", ""trial_type"": ""text-recall"", ""trial_index"": 63, ""time_elapsed"": 2093532, ""internal_node_id"": ""0.0-59.0"", ""mode"": ""pilot"", ""subject_cond"": ""2"", ""exp"": ""expAv3""}"
debugDZntQ:debugGz0Ox,18,1.64E+12,"{""type"": ""reminder"", ""success"": false, ""recalled_list"": [""SALSA""], ""matching_list"": [], ""missing_list"": [""DESK"", ""BALLROOM"", ""OTTOMAN"", ""RIDGE"", ""LAMP"", ""SWING"", ""WRESTLING"", ""VOLCANO"", ""BOWLING"", ""WALTZ""], ""shown_list"": [""DESK"", ""BALLROOM"", ""OTTOMAN"", ""RIDGE"", ""SALSA"", ""LAMP"", ""SWING"", ""WRESTLING"", ""VOLLEYBALL"", ""WATERFALL"", ""VOLCANO"", ""BOWLING"", ""WALTZ"", ""RAVINE"", ""CABINET"", ""HANDBALL""], ""num_correct"": 0, ""instructions"": false, ""times"": [3480], ""reminder"": ""SALSA"", ""list_type"": ""categorized_16_6"", ""trial_type"": ""reminder"", ""trial_index"": 64, ""time_elapsed"": 2117061, ""internal_node_id"": ""0.0-60.0"", ""mode"": ""pilot"", ""subject_cond"": ""2"", ""exp"": ""expAv3""}"
debugDZntQ:debugGz0Ox,19,1.64E+12,"{""type"": ""text-recall"", ""success"": false, ""recalled_list"": [""GATE"", ""GALE"", ""TROUSERS"", ""PEACOOCK"", ""GINGER""], ""matching_list"": [""GALE"", ""TROUSERS"", ""PEACOCK"", ""GINGER""], ""missing_list"": [""VANILLA"", ""SNOW"", ""FALCON"", ""EARTHQUAKE"", ""SUGAR"", ""DRESS"", ""CYCLONE"", ""PIGEON"", ""BOXERS"", ""SPARROW"", ""ROBE"", ""SAGE""], ""shown_list"": [""VANILLA"", ""SNOW"", ""FALCON"", ""EARTHQUAKE"", ""SUGAR"", ""DRESS"", ""CYCLONE"", ""PIGEON"", ""GINGER"", ""BOXERS"", ""SPARROW"", ""ROBE"", ""SAGE"", ""PEACOCK"", ""TROUSERS"", ""GALE""], ""num_correct"": 4, ""instructions"": false, ""times"": [1657, 2304, 6443, 6017, 3650], ""correct_sizes"": true, ""used_time"": 24493, ""list_type"": ""categorized_16_7"", ""trial_type"": ""text-recall"", ""trial_index"": 67, ""time_elapsed"": 2198350, ""internal_node_id"": ""0.0-63.0"", ""mode"": ""pilot"", ""subject_cond"": ""2"", ""exp"": ""expAv3""}"
debugDZntQ:debugGz0Ox,20,1.64E+12,"{""type"": ""reminder"", ""success"": false, ""recalled_list"": [""SAGE"", ""VANILLA""], ""matching_list"": [""VANILLA""], ""missing_list"": [""SNOW"", ""FALCON"", ""EARTHQUAKE"", ""SUGAR"", ""DRESS"", ""CYCLONE"", ""PIGEON"", ""BOXERS"", ""SPARROW"", ""ROBE""], ""shown_list"": [""VANILLA"", ""SNOW"", ""FALCON"", ""EARTHQUAKE"", ""SUGAR"", ""DRESS"", ""CYCLONE"", ""PIGEON"", ""GINGER"", ""BOXERS"", ""SPARROW"", ""ROBE"", ""SAGE"", ""PEACOCK"", ""TROUSERS"", ""GALE""], ""num_correct"": 1, ""instructions"": false, ""times"": [1959, 2128], ""reminder"": ""SAGE"", ""list_type"": ""categorized_16_7"", ""trial_type"": ""reminder"", ""trial_index"": 68, ""time_elapsed"": 2267862, ""internal_node_id"": ""0.0-64.0"", ""mode"": ""pilot"", ""subject_cond"": ""2"", ""exp"": ""expAv3""}"
debugDZntQ:debugGz0Ox,21,1.64E+12,"{""type"": ""survey-text"", ""responses"": ""{\""Q0\"":\""Mini-timer would be great, otherwise everything was great\\n\""}"", ""trial_type"": ""survey-text"", ""trial_index"": 71, ""time_elapsed"": 2381950, ""internal_node_id"": ""0.0-67.0"", ""mode"": ""pilot"", ""subject_cond"": ""2"", ""exp"": ""expAv3""}"
debugDZntQ:debugGz0Ox,22,1.64E+12,"{""id"": ""debugDZntQ:debugGz0Ox"", ""type"": ""total-points"", ""total_points"": 104}"
debugZXouQ:debugL6Urp,0,1.64E+12,"{""type"": ""survey-text"", ""responses"": ""{\""Q0\"":\""61674adfcb34988f84e50070\""}"", ""trial_type"": ""survey-text"", ""trial_index"": 0, ""time_elapsed"": 7399, ""internal_node_id"": ""0.0-0.0"", ""mode"": ""pilot"", ""subject_cond"": ""1"", ""exp"": ""expAv3""}"
debugZXouQ:debugL6Urp,1,1.64E+12,"{""type"": ""text-recall"", ""success"": false, ""recalled_list"": [""STREETCAR"", ""TAXI"", ""MOOSE"", ""GOAT"", ""WING"", ""TIGER"", ""ROOF"", ""FLOOR"", ""TRAILER""], ""matching_list"": [""STREETCAR"", ""TAXI"", ""MOOSE"", ""GOAT"", ""WING"", ""TIGER"", ""ROOF"", ""FLOOR"", ""TRAILER""], ""missing_list"": [""VOLLEYBALL"", ""DIVING"", ""DONKEY"", ""GOLF"", ""BOXING"", ""CART"", ""LOBBY""], ""shown_list"": [""TRAILER"", ""VOLLEYBALL"", ""DIVING"", ""FLOOR"", ""ROOF"", ""STREETCAR"", ""DONKEY"", ""GOLF"", ""MOOSE"", ""GOAT"", ""BOXING"", ""CART"", ""LOBBY"", ""TIGER"", ""WING"", ""TAXI""], ""num_correct"": 9, ""instructions"": false, ""times"": [4189, 2081, 2379, 2112, 1726, 4084, 3226, 2843, 4647], ""correct_sizes"": false, ""used_time"": 55793, ""list_type"": ""categorized_16_8"", ""trial_type"": ""text-recall"", ""trial_index"": 29, ""time_elapsed"": 1004636, ""internal_node_id"": ""0.0-27.0"", ""mode"": ""pilot"", ""subject_cond"": ""1"", ""exp"": ""expAv3""}"
debugZXouQ:debugL6Urp,2,1.64E+12,"{""type"": ""reminder"", ""success"": false, ""recalled_list"": [""VOLLEYBALL"", ""TENNIS""], ""matching_list"": [], ""missing_list"": [""DIVING"", ""DONKEY"", ""GOLF"", ""BOXING"", ""CART"", ""LOBBY""], ""shown_list"": [""TRAILER"", ""VOLLEYBALL"", ""DIVING"", ""FLOOR"", ""ROOF"", ""STREETCAR"", ""DONKEY"", ""GOLF"", ""MOOSE"", ""GOAT"", ""BOXING"", ""CART"", ""LOBBY"", ""TIGER"", ""WING"", ""TAXI""], ""num_correct"": 0, ""instructions"": false, ""times"": [6201, 6573], ""reminder"": ""VOLLEYBALL"", ""list_type"": ""categorized_16_8"", ""trial_type"": ""reminder"", ""trial_index"": 30, ""time_elapsed"": 1043634, ""internal_node_id"": ""0.0-28.0"", ""mode"": ""pilot"", ""subject_cond"": ""1"", ""exp"": ""expAv3""}"
debugZXouQ:debugL6Urp,3,1.64E+12,"{""type"": ""text-recall"", ""success"": false, ""recalled_list"": [""SEEDS"", ""LAKE"", ""STREAM"", ""LAKE"", ""FISHING"", ""SKIING"", ""FISH"", ""BOAT"", ""WRESTLING"", ""HILL"", ""BOAT""], ""matching_list"": [""SEEDS"", ""LAKE"", ""STREAM"", ""FISHING"", ""SKIING"", ""BOAT"", ""WRESTLING"", ""HILL""], ""missing_list"": [""PITCHFORK"", ""CARRIAGE"", ""BICYCLE"", ""SUBWAY"", ""TRACK"", ""POND"", ""HOSE"", ""SOIL""], ""shown_list"": [""PITCHFORK"", ""CARRIAGE"", ""BICYCLE"", ""SKIING"", ""FISHING"", ""WRESTLING"", ""SUBWAY"", ""TRACK"", ""POND"", ""HOSE"", ""LAKE"", ""SOIL"", ""BOAT"", ""STREAM"", ""HILL"", ""SEEDS""], ""num_correct"": 8, ""instructions"": false, ""times"": [4573, 1782, 2789, 1712, 2973, 3807, 4874, 4302, 10733, 8614, 6203], ""correct_sizes"": false, ""used_time"": 58637, ""list_type"": ""categorized_16_4"", ""trial_type"": ""text-recall"", ""trial_index"": 33, ""time_elapsed"": 1166300, ""internal_node_id"": ""0.0-31.0"", ""mode"": ""pilot"", ""subject_cond"": ""1"", ""exp"": ""expAv3""}"
debugZXouQ:debugL6Urp,4,1.64E+12,"{""type"": ""reminder"", ""success"": false, ""recalled_list"": [""HOSE"", ""PITCHFORK""], ""matching_list"": [""PITCHFORK""], ""missing_list"": [""CARRIAGE"", ""BICYCLE"", ""SUBWAY"", ""TRACK"", ""POND"", ""SOIL""], ""shown_list"": [""PITCHFORK"", ""CARRIAGE"", ""BICYCLE"", ""SKIING"", ""FISHING"", ""WRESTLING"", ""SUBWAY"", ""TRACK"", ""POND"", ""HOSE"", ""LAKE"", ""SOIL"", ""BOAT"", ""STREAM"", ""HILL"", ""SEEDS""], ""num_correct"": 1, ""instructions"": false, ""times"": [2947, 3782], ""reminder"": ""HOSE"", ""list_type"": ""categorized_16_4"", ""trial_type"": ""reminder"", ""trial_index"": 34, ""time_elapsed"": 1202634, ""internal_node_id"": ""0.0-32.0"", ""mode"": ""pilot"", ""subject_cond"": ""1"", ""exp"": ""expAv3""}"
debugZXouQ:debugL6Urp,5,1.64E+12,"{""type"": ""text-recall"", ""success"": false, ""recalled_list"": [""WIND"", ""TSUNAMI"", ""MANSION"", ""JET"", ""COTTAGE"", ""BOAT"", ""GOAT"", ""HILL"", ""HORLOT""], ""matching_list"": [""WIND"", ""TSUNAMI"", ""MANSION"", ""JET"", ""COTTAGE""], ""missing_list"": [""MOTORCYCLE"", ""MOSQUITO"", ""BLIZZARD"", ""BEETLE"", ""TROLLEY"", ""GALE"", ""HOTEL"", ""WORM"", ""HORNET"", ""BUNGALOW"", ""VAN""], ""shown_list"": [""JET"", ""MANSION"", ""MOTORCYCLE"", ""MOSQUITO"", ""BLIZZARD"", ""BEETLE"", ""TROLLEY"", ""GALE"", ""HOTEL"", ""COTTAGE"", ""WORM"", ""HORNET"", ""BUNGALOW"", ""VAN"", ""WIND"", ""TSUNAMI""], ""num_correct"": 5, ""instructions"": false, ""times"": [2825, 4081, 3907, 4802, 4052, 6186, 1866, 3369, 6035], ""correct_sizes"": false, ""used_time"": 42818, ""list_type"": ""categorized_16_6"", ""trial_type"": ""text-recall"", ""trial_index"": 37, ""time_elapsed"": 1306316, ""internal_node_id"": ""0.0-35.0"", ""mode"": ""pilot"", ""subject_cond"": ""1"", ""exp"": ""expAv3""}"
debugZXouQ:debugL6Urp,6,1.64E+12,"{""type"": ""reminder"", ""success"": false, ""recalled_list"": [""WORM"", ""GARDEN"", ""MOTORCYCLE"", ""BUNGELOW""], ""matching_list"": [""MOTORCYCLE"", ""BUNGALOW""], ""missing_list"": [""MOSQUITO"", ""BLIZZARD"", ""BEETLE"", ""TROLLEY"", ""GALE"", ""HOTEL"", ""HORNET"", ""VAN""], ""shown_list"": [""JET"", ""MANSION"", ""MOTORCYCLE"", ""MOSQUITO"", ""BLIZZARD"", ""BEETLE"", ""TROLLEY"", ""GALE"", ""HOTEL"", ""COTTAGE"", ""WORM"", ""HORNET"", ""BUNGALOW"", ""VAN"", ""WIND"", ""TSUNAMI""], ""num_correct"": 2, ""instructions"": false, ""times"": [3097, 3224, 10068, 8346], ""reminder"": ""WORM"", ""list_type"": ""categorized_16_6"", ""trial_type"": ""reminder"", ""trial_index"": 38, ""time_elapsed"": 1359299, ""internal_node_id"": ""0.0-36.0"", ""mode"": ""pilot"", ""subject_cond"": ""1"", ""exp"": ""expAv3""}"
debugZXouQ:debugL6Urp,7,1.64E+12,"{""type"": ""text-recall"", ""success"": false, ""recalled_list"": [""BALLROOM"", ""ROOM"", ""TRAIN"", ""TRACTOR"", ""SALSA"", ""BATHROOM"", ""LAMP"", ""ENTRANCE"", ""TRAIN"", ""ATTIC""], ""matching_list"": [""BALLROOM"", ""ROOM"", ""TRAIN"", ""TRACTOR"", ""SALSA"", ""BATHROOM"", ""LAMP"", ""ENTRANCE"", ""ATTIC""], ""missing_list"": [""WAGON"", ""HELICOPTER"", ""BUREAU"", ""OTTOMAN"", ""BALLET"", ""TANGO"", ""CABINET""], ""shown_list"": [""SALSA"", ""WAGON"", ""ENTRANCE"", ""TRAIN"", ""TRACTOR"", ""HELICOPTER"", ""BUREAU"", ""ATTIC"", ""BATHROOM"", ""LAMP"", ""ROOM"", ""OTTOMAN"", ""BALLET"", ""TANGO"", ""CABINET"", ""BALLROOM""], ""num_correct"": 9, ""instructions"": false, ""times"": [3936, 2740, 3037, 7409, 2491, 4300, 2626, 7147, 4516, 12069], ""correct_sizes"": false, ""used_time"": 58902, ""list_type"": ""categorized_16_9"", ""trial_type"": ""text-recall"", ""trial_index"": 41, ""time_elapsed"": 1474246, ""internal_node_id"": ""0.0-39.0"", ""mode"": ""pilot"", ""subject_cond"": ""1"", ""exp"": ""expAv3""}"
debugZXouQ:debugL6Urp,8,1.64E+12,"{""type"": ""reminder"", ""success"": false, ""recalled_list"": [""BALLET"", ""BALLROOM""], ""matching_list"": [], ""missing_list"": [""WAGON"", ""HELICOPTER"", ""BUREAU"", ""OTTOMAN"", ""TANGO"", ""CABINET""], ""shown_list"": [""SALSA"", ""WAGON"", ""ENTRANCE"", ""TRAIN"", ""TRACTOR"", ""HELICOPTER"", ""BUREAU"", ""ATTIC"", ""BATHROOM"", ""LAMP"", ""ROOM"", ""OTTOMAN"", ""BALLET"", ""TANGO"", ""CABINET"", ""BALLROOM""], ""num_correct"": 0, ""instructions"": false, ""times"": [3873, 6632], ""reminder"": ""BALLET"", ""list_type"": ""categorized_16_9"", ""trial_type"": ""reminder"", ""trial_index"": 42, ""time_elapsed"": 1510645, ""internal_node_id"": ""0.0-40.0"", ""mode"": ""pilot"", ""subject_cond"": ""1"", ""exp"": ""expAv3""}"
debugZXouQ:debugL6Urp,9,1.64E+12,"{""type"": ""text-recall"", ""success"": false, ""recalled_list"": [""MANUSCRIPT"", ""BRIT"", ""BALLOT"", ""FRED""], ""matching_list"": [""MANUSCRIPT""], ""missing_list"": [""TANKER"", ""BIRCH"", ""REDWOOD"", ""DIGEST"", ""EVERGREEN"", ""CROW"", ""CANARY"", ""BULLETIN"", ""PIGEON"", ""FERRY"", ""STEAMBOAT"", ""BARGE"", ""FINCH"", ""FIR"", ""BOOKLET""], ""shown_list"": [""MANUSCRIPT"", ""TANKER"", ""BIRCH"", ""REDWOOD"", ""DIGEST"", ""EVERGREEN"", ""CROW"", ""CANARY"", ""BULLETIN"", ""PIGEON"", ""FERRY"", ""STEAMBOAT"", ""BARGE"", ""FINCH"", ""FIR"", ""BOOKLET""], ""num_correct"": 1, ""instructions"": false, ""times"": [12237, 4888, 5324, 6340], ""correct_sizes"": false, ""used_time"": 34372, ""list_type"": ""categorized_16_2"", ""trial_type"": ""text-recall"", ""trial_index"": 45, ""time_elapsed"": 1604093, ""internal_node_id"": ""0.0-43.0"", ""mode"": ""pilot"", ""subject_cond"": ""1"", ""exp"": ""expAv3""}"
debugZXouQ:debugL6Urp,10,1.64E+12,"{""type"": ""reminder"", ""success"": false, ""recalled_list"": [""STEAMBOAT"", ""BUREU""], ""matching_list"": [], ""missing_list"": [""TANKER"", ""BIRCH"", ""REDWOOD"", ""DIGEST"", ""EVERGREEN"", ""CROW"", ""CANARY"", ""BULLETIN"", ""PIGEON"", ""FERRY"", ""BARGE"", ""FINCH"", ""FIR"", ""BOOKLET""], ""shown_list"": [""MANUSCRIPT"", ""TANKER"", ""BIRCH"", ""REDWOOD"", ""DIGEST"", ""EVERGREEN"", ""CROW"", ""CANARY"", ""BULLETIN"", ""PIGEON"", ""FERRY"", ""STEAMBOAT"", ""BARGE"", ""FINCH"", ""FIR"", ""BOOKLET""], ""num_correct"": 0, ""instructions"": false, ""times"": [6705, 40325], ""reminder"": ""STEAMBOAT"", ""list_type"": ""categorized_16_2"", ""trial_type"": ""reminder"", ""trial_index"": 46, ""time_elapsed"": 1664686, ""internal_node_id"": ""0.0-44.0"", ""mode"": ""pilot"", ""subject_cond"": ""1"", ""exp"": ""expAv3""}"
debugZXouQ:debugL6Urp,11,1.64E+12,"{""type"": ""text-recall"", ""success"": false, ""recalled_list"": [""CHICKEN"", ""PAMPHLET"", ""HAT"", ""BLUEGRASS"", ""DRESS"", ""SWAN"", ""PARROT"", ""PUNK"", ""INSTRUMENT"", ""EDITORAL"", ""FALCON""], ""matching_list"": [""CHICKEN"", ""PAMPHLET"", ""HAT"", ""BLUEGRASS"", ""DRESS"", ""SWAN"", ""PARROT"", ""PUNK"", ""EDITORIAL"", ""FALCON""], ""missing_list"": [""INSTRUMENTAL"", ""BOXERS"", ""NOVEL"", ""GOSPEL"", ""REPORT"", ""JEANS""], ""shown_list"": [""BLUEGRASS"", ""HAT"", ""DRESS"", ""PARROT"", ""INSTRUMENTAL"", ""SWAN"", ""FALCON"", ""PUNK"", ""BOXERS"", ""EDITORIAL"", ""NOVEL"", ""GOSPEL"", ""REPORT"", ""JEANS"", ""PAMPHLET"", ""CHICKEN""], ""num_correct"": 10, ""instructions"": false, ""times"": [7476, 5320, 4040, 19905, 9922, 10756, 3082, 11606, 4184, 9567, 4036], ""correct_sizes"": false, ""used_time"": 90000, ""list_type"": ""categorized_16_5"", ""trial_type"": ""text-recall"", ""trial_index"": 49, ""time_elapsed"": 1816819, ""internal_node_id"": ""0.0-47.0"", ""mode"": ""pilot"", ""subject_cond"": ""1"", ""exp"": ""expAv3""}"
debugZXouQ:debugL6Urp,12,1.64E+12,"{""type"": ""reminder"", ""success"": false, ""recalled_list"": [], ""matching_list"": [], ""missing_list"": [], ""shown_list"": [""BLUEGRASS"", ""HAT"", ""DRESS"", ""PARROT"", ""INSTRUMENTAL"", ""SWAN"", ""FALCON"", ""PUNK"", ""BOXERS"", ""EDITORIAL"", ""NOVEL"", ""GOSPEL"", ""REPORT"", ""JEANS"", ""PAMPHLET"", ""CHICKEN""], ""num_correct"": 0, ""instructions"": false, ""times"": [], ""reminder"": """", ""list_type"": ""categorized_16_5"", ""trial_type"": ""reminder"", ""trial_index"": 50, ""time_elapsed"": 1817912, ""internal_node_id"": ""0.0-48.0"", ""mode"": ""pilot"", ""subject_cond"": ""1"", ""exp"": ""expAv3""}"
debugZXouQ:debugL6Urp,13,1.64E+12,"{""type"": ""text-recall"", ""success"": false, ""recalled_list"": [""RULER"", ""PENCIL"", ""CATFISH"", ""LIME"", ""CRANBERRY"", ""CHERRY"", ""LEVEL"", ""RAVINE"", ""SCREW"", ""PERCH"", ""ROGDE"", ""GRAPE"", ""WATERFALL"", ""PLUM""], ""matching_list"": [""RULER"", ""PENCIL"", ""CATFISH"", ""LIME"", ""CHERRY"", ""LEVEL"", ""RAVINE"", ""SCREW"", ""PERCH"", ""GRAPE"", ""WATERFALL"", ""PLUM""], ""missing_list"": [""SHARK"", ""CARP"", ""VOLCANO"", ""RIDGE""], ""shown_list"": [""CATFISH"", ""SHARK"", ""CARP"", ""VOLCANO"", ""PLUM"", ""LEVEL"", ""CHERRY"", ""RAVINE"", ""LIME"", ""SCREW"", ""PERCH"", ""RIDGE"", ""WATERFALL"", ""GRAPE"", ""PENCIL"", ""RULER""], ""num_correct"": 12, ""instructions"": false, ""times"": [5992, 2746, 2628, 4492, 5641, 5686, 2025, 8267, 5023, 4159, 4058, 3613, 2993, 12239], ""correct_sizes"": false, ""used_time"": 71554, ""list_type"": ""categorized_16_0"", ""trial_type"": ""text-recall"", ""trial_index"": 53, ""time_elapsed"": 1972192, ""internal_node_id"": ""0.0-51.0"", ""mode"": ""pilot"", ""subject_cond"": ""1"", ""exp"": ""expAv3""}"
debugZXouQ:debugL6Urp,14,1.64E+12,"{""type"": ""reminder"", ""success"": false, ""recalled_list"": [""SHARK""], ""matching_list"": [], ""missing_list"": [""CARP"", ""VOLCANO"", ""RIDGE""], ""shown_list"": [""CATFISH"", ""SHARK"", ""CARP"", ""VOLCANO"", ""PLUM"", ""LEVEL"", ""CHERRY"", ""RAVINE"", ""LIME"", ""SCREW"", ""PERCH"", ""RIDGE"", ""WATERFALL"", ""GRAPE"", ""PENCIL"", ""RULER""], ""num_correct"": 0, ""instructions"": false, ""times"": [5609], ""reminder"": ""SHARK"", ""list_type"": ""categorized_16_0"", ""trial_type"": ""reminder"", ""trial_index"": 54, ""time_elapsed"": 1999581, ""internal_node_id"": ""0.0-52.0"", ""mode"": ""pilot"", ""subject_cond"": ""1"", ""exp"": ""expAv3""}"
debugZXouQ:debugL6Urp,15,1.64E+12,"{""type"": ""text-recall"", ""success"": false, ""recalled_list"": [""HAWK"", ""CEDAR"", ""SPARROW"", ""ELM"", ""LETTER"", ""PENGUIN"", ""JOURNAL"", ""CRANE"", ""BASEMENT"", ""BEECH"", ""ELEVATOR"", ""WALLS""], ""matching_list"": [""HAWK"", ""CEDAR"", ""SPARROW"", ""ELM"", ""LETTER"", ""PENGUIN"", ""JOURNAL"", ""CRANE"", ""BASEMENT"", ""BEECH"", ""ELEVATOR"", ""WALLS""], ""missing_list"": [""ENCYCLOPEDIA"", ""PORCH"", ""NOTE"", ""EUCALYPTUS""], ""shown_list"": [""SPARROW"", ""CEDAR"", ""ENCYCLOPEDIA"", ""ELM"", ""LETTER"", ""JOURNAL"", ""PENGUIN"", ""BASEMENT"", ""CRANE"", ""BEECH"", ""ELEVATOR"", ""WALLS"", ""PORCH"", ""NOTE"", ""EUCALYPTUS"", ""HAWK""], ""num_correct"": 12, ""instructions"": false, ""times"": [5157, 12996, 10521, 16664, 5642, 9997, 3561, 10184, 3239, 5636, 4291, 1962], ""correct_sizes"": false, ""used_time"": 90000, ""list_type"": ""categorized_16_3"", ""trial_type"": ""text-recall"", ""trial_index"": 57, ""time_elapsed"": 2163136, ""internal_node_id"": ""0.0-55.0"", ""mode"": ""pilot"", ""subject_cond"": ""1"", ""exp"": ""expAv3""}"
debugZXouQ:debugL6Urp,16,1.64E+12,"{""type"": ""reminder"", ""success"": false, ""recalled_list"": [], ""matching_list"": [], ""missing_list"": [], ""shown_list"": [""SPARROW"", ""CEDAR"", ""ENCYCLOPEDIA"", ""ELM"", ""LETTER"", ""JOURNAL"", ""PENGUIN"", ""BASEMENT"", ""CRANE"", ""BEECH"", ""ELEVATOR"", ""WALLS"", ""PORCH"", ""NOTE"", ""EUCALYPTUS"", ""HAWK""], ""num_correct"": 0, ""instructions"": false, ""times"": [], ""reminder"": """", ""list_type"": ""categorized_16_3"", ""trial_type"": ""reminder"", ""trial_index"": 58, ""time_elapsed"": 2164144, ""internal_node_id"": ""0.0-56.0"", ""mode"": ""pilot"", ""subject_cond"": ""1"", ""exp"": ""expAv3""}"
debugZXouQ:debugL6Urp,17,1.64E+12,"{""type"": ""text-recall"", ""success"": false, ""recalled_list"": [""PEACOCK""], ""matching_list"": [""PEACOCK""], ""missing_list"": [""VULTURE"", ""BROWN"", ""STEAM"", ""FROST"", ""GRAY"", ""RAIN"", ""CYCLONE"", ""WATER"", ""NUCLEAR"", ""TAN"", ""OIL"", ""OWL"", ""DOVE"", ""SNOW"", ""CRIMSON""], ""shown_list"": [""VULTURE"", ""BROWN"", ""STEAM"", ""FROST"", ""GRAY"", ""RAIN"", ""CYCLONE"", ""WATER"", ""NUCLEAR"", ""TAN"", ""OIL"", ""OWL"", ""DOVE"", ""SNOW"", ""CRIMSON"", ""PEACOCK""], ""num_correct"": 1, ""instructions"": false, ""times"": [3735], ""correct_sizes"": false, ""used_time"": 10693, ""list_type"": ""categorized_16_7"", ""trial_type"": ""text-recall"", ""trial_index"": 61, ""time_elapsed"": 2231359, ""internal_node_id"": ""0.0-59.0"", ""mode"": ""pilot"", ""subject_cond"": ""1"", ""exp"": ""expAv3""}"
debugZXouQ:debugL6Urp,18,1.64E+12,"{""type"": ""reminder"", ""success"": false, ""recalled_list"": [""DOVE"", ""TAN"", ""AIR"", ""OIL""], ""matching_list"": [""TAN"", ""OIL""], ""missing_list"": [""VULTURE"", ""BROWN"", ""STEAM"", ""FROST"", ""GRAY"", ""RAIN"", ""CYCLONE"", ""WATER"", ""NUCLEAR"", ""OWL"", ""SNOW"", ""CRIMSON""], ""shown_list"": [""VULTURE"", ""BROWN"", ""STEAM"", ""FROST"", ""GRAY"", ""RAIN"", ""CYCLONE"", ""WATER"", ""NUCLEAR"", ""TAN"", ""OIL"", ""OWL"", ""DOVE"", ""SNOW"", ""CRIMSON"", ""PEACOCK""], ""num_correct"": 2, ""instructions"": false, ""times"": [4047, 5683, 34626, 3986], ""reminder"": ""DOVE"", ""list_type"": ""categorized_16_7"", ""trial_type"": ""reminder"", ""trial_index"": 62, ""time_elapsed"": 2315698, ""internal_node_id"": ""0.0-60.0"", ""mode"": ""pilot"", ""subject_cond"": ""1"", ""exp"": ""expAv3""}"
debugZXouQ:debugL6Urp,19,1.64E+12,"{""type"": ""text-recall"", ""success"": false, ""recalled_list"": [""LIGHTNING"", ""HARP"", ""THUNDER"", ""GINGER"", ""VANILLA""], ""matching_list"": [""LIGHTNING"", ""HARP"", ""THUNDER"", ""GINGER"", ""VANILLA""], ""missing_list"": [""FIDDLE"", ""LEATHER"", ""SAGE"", ""HARMONICA"", ""CLOUDS"", ""VELVET"", ""FELT"", ""SUGAR"", ""TYPHOON"", ""CLOTH"", ""KEYBOARD""], ""shown_list"": [""FIDDLE"", ""LEATHER"", ""SAGE"", ""HARMONICA"", ""THUNDER"", ""CLOUDS"", ""VELVET"", ""FELT"", ""GINGER"", ""SUGAR"", ""TYPHOON"", ""CLOTH"", ""KEYBOARD"", ""VANILLA"", ""HARP"", ""LIGHTNING""], ""num_correct"": 5, ""instructions"": false, ""times"": [4281, 2351, 3560, 4550, 3415], ""correct_sizes"": true, ""used_time"": 23755, ""list_type"": ""categorized_16_1"", ""trial_type"": ""text-recall"", ""trial_index"": 65, ""time_elapsed"": 2399594, ""internal_node_id"": ""0.0-63.0"", ""mode"": ""pilot"", ""subject_cond"": ""1"", ""exp"": ""expAv3""}"
debugZXouQ:debugL6Urp,20,1.64E+12,"{""type"": ""reminder"", ""success"": false, ""recalled_list"": [""VELVERT"", ""FELT""], ""matching_list"": [""FELT""], ""missing_list"": [""FIDDLE"", ""LEATHER"", ""SAGE"", ""HARMONICA"", ""CLOUDS"", ""SUGAR"", ""TYPHOON"", ""CLOTH"", ""KEYBOARD""], ""shown_list"": [""FIDDLE"", ""LEATHER"", ""SAGE"", ""HARMONICA"", ""THUNDER"", ""CLOUDS"", ""VELVET"", ""FELT"", ""GINGER"", ""SUGAR"", ""TYPHOON"", ""CLOTH"", ""KEYBOARD"", ""VANILLA"", ""HARP"", ""LIGHTNING""], ""num_correct"": 1, ""instructions"": false, ""times"": [4324, 2314], ""reminder"": ""VELVET"", ""list_type"": ""categorized_16_1"", ""trial_type"": ""reminder"", ""trial_index"": 66, ""time_elapsed"": 2470794, ""internal_node_id"": ""0.0-64.0"", ""mode"": ""pilot"", ""subject_cond"": ""1"", ""exp"": ""expAv3""}"
debugZXouQ:debugL6Urp,21,1.64E+12,"{""type"": ""survey-text"", ""responses"": ""{\""Q0\"":\""\""}"", ""trial_type"": ""survey-text"", ""trial_index"": 69, ""time_elapsed"": 2492944, ""internal_node_id"": ""0.0-67.0"", ""mode"": ""pilot"", ""subject_cond"": ""1"", ""exp"": ""expAv3""}"
debugZXouQ:debugL6Urp,22,1.64E+12,"{""id"": ""debugZXouQ:debugL6Urp"", ""type"": ""total-points"", ""total_points"": 15}"
debugUdL5s:debugQTkOI,0,1.64E+12,"{""type"": ""survey-text"", ""responses"": ""{\""Q0\"":\""6113ace2fc1be74447f32d32\""}"", ""trial_type"": ""survey-text"", ""trial_index"": 0, ""time_elapsed"": 6994, ""internal_node_id"": ""0.0-0.0"", ""mode"": ""pilot"", ""subject_cond"": ""0"", ""exp"": ""expAv3""}"
debugUdL5s:debugQTkOI,1,1.64E+12,"{""type"": ""text-recall"", ""success"": false, ""recalled_list"": [""DESTROYER"", ""CROW"", ""FOLK"", ""SOUL""], ""matching_list"": [""DESTROYER"", ""CROW"", ""FOLK"", ""SOUL""], ""missing_list"": [""FERRY"", ""PENCIL"", ""SCREW"", ""HAWK"", ""PIGEON"", ""BARGE"", ""INSTRUMENTAL"", ""CANARY"", ""BLUES"", ""AXE"", ""RULER"", ""SCHOONER""], ""shown_list"": [""FERRY"", ""PENCIL"", ""CROW"", ""FOLK"", ""SOUL"", ""SCREW"", ""HAWK"", ""PIGEON"", ""BARGE"", ""INSTRUMENTAL"", ""CANARY"", ""BLUES"", ""AXE"", ""RULER"", ""SCHOONER"", ""DESTROYER""], ""num_correct"": 4, ""instructions"": false, ""times"": [6457, 5440, 2160, 3600], ""correct_sizes"": true, ""used_time"": 90000, ""list_type"": ""categorized_16_1"", ""trial_type"": ""text-recall"", ""trial_index"": 121, ""time_elapsed"": 2067143, ""internal_node_id"": ""0.0-27.0"", ""mode"": ""pilot"", ""subject_cond"": ""0"", ""exp"": ""expAv3""}"
debugUdL5s:debugQTkOI,2,1.64E+12,"{""type"": ""reminder"", ""success"": false, ""recalled_list"": [], ""matching_list"": [], ""missing_list"": [], ""shown_list"": [""FERRY"", ""PENCIL"", ""CROW"", ""FOLK"", ""SOUL"", ""SCREW"", ""HAWK"", ""PIGEON"", ""BARGE"", ""INSTRUMENTAL"", ""CANARY"", ""BLUES"", ""AXE"", ""RULER"", ""SCHOONER"", ""DESTROYER""], ""num_correct"": 0, ""instructions"": false, ""times"": [], ""reminder"": """", ""list_type"": ""categorized_16_1"", ""trial_type"": ""reminder"", ""trial_index"": 122, ""time_elapsed"": 2068146, ""internal_node_id"": ""0.0-28.0"", ""mode"": ""pilot"", ""subject_cond"": ""0"", ""exp"": ""expAv3""}"
debugUdL5s:debugQTkOI,3,1.64E+12,"{""type"": ""text-recall"", ""success"": true, ""recalled_list"": [""MOUSE"", ""OWL"", ""LIZARD"", ""PENGUIN"", ""FENCING"", ""VOLLEYBALL"", ""TRAIN"", ""CHICKEN"", ""CART"", ""BOAT"", ""MOTORCYCLE"", ""GOLF"", ""RABBIT"", ""FALCON"", ""GOAT"", ""GYMNASTICS""], ""matching_list"": [""MOUSE"", ""OWL"", ""LIZARD"", ""PENGUIN"", ""FENCING"", ""VOLLEYBALL"", ""TRAIN"", ""CHICKEN"", ""CART"", ""BOAT"", ""MOTORCYCLE"", ""GOLF"", ""RABBIT"", ""FALCON"", ""GOAT"", ""GYMNASTICS""], ""missing_list"": [], ""shown_list"": [""MOUSE"", ""OWL"", ""LIZARD"", ""PENGUIN"", ""FENCING"", ""VOLLEYBALL"", ""TRAIN"", ""CHICKEN"", ""CART"", ""BOAT"", ""MOTORCYCLE"", ""GOLF"", ""RABBIT"", ""FALCON"", ""GOAT"", ""GYMNASTICS""], ""num_correct"": 16, ""instructions"": false, ""times"": [3276, 2367, 1569, 3088, 3280, 4944, 1360, 2736, 1631, 3313, 4863, 1856, 2657, 3872, 1696, 4464], ""correct_sizes"": true, ""used_time"": 90000, ""list_type"": ""categorized_16_8"", ""trial_type"": ""text-recall"", ""trial_index"": 125, ""time_elapsed"": 2218209, ""internal_node_id"": ""0.0-31.0"", ""mode"": ""pilot"", ""subject_cond"": ""0"", ""exp"": ""expAv3""}"
debugUdL5s:debugQTkOI,4,1.64E+12,"{""type"": ""reminder"", ""success"": true, ""recalled_list"": [], ""matching_list"": [], ""missing_list"": [], ""shown_list"": [""MOUSE"", ""OWL"", ""LIZARD"", ""PENGUIN"", ""FENCING"", ""VOLLEYBALL"", ""TRAIN"", ""CHICKEN"", ""CART"", ""BOAT"", ""MOTORCYCLE"", ""GOLF"", ""RABBIT"", ""FALCON"", ""GOAT"", ""GYMNASTICS""], ""num_correct"": 0, ""instructions"": false, ""times"": [], ""reminder"": """", ""list_type"": ""categorized_16_8"", ""trial_type"": ""reminder"", ""trial_index"": 126, ""time_elapsed"": 2219214, ""internal_node_id"": ""0.0-32.0"", ""mode"": ""pilot"", ""subject_cond"": ""0"", ""exp"": ""expAv3""}"
debugUdL5s:debugQTkOI,5,1.64E+12,"{""type"": ""text-recall"", ""success"": true, ""recalled_list"": [""SUBWAY"", ""CAVE"", ""OIL"", ""VALLEY"", ""NUCLEAR"", ""WAGON"", ""RIVER"", ""JEEP"", ""WATER"", ""BLUEGREASS"", ""SKA"", ""TECHNO"", ""PUNK"", ""ELECTRICITY"", ""TROLLEY"", ""CANYON""], ""matching_list"": [""SUBWAY"", ""CAVE"", ""OIL"", ""VALLEY"", ""NUCLEAR"", ""WAGON"", ""RIVER"", ""JEEP"", ""WATER"", ""BLUEGRASS"", ""SKA"", ""TECHNO"", ""PUNK"", ""ELECTRICITY"", ""TROLLEY"", ""CANYON""], ""missing_list"": [], ""shown_list"": [""SUBWAY"", ""CAVE"", ""OIL"", ""VALLEY"", ""NUCLEAR"", ""WAGON"", ""RIVER"", ""JEEP"", ""WATER"", ""BLUEGRASS"", ""SKA"", ""TECHNO"", ""PUNK"", ""ELECTRICITY"", ""TROLLEY"", ""CANYON""], ""num_correct"": 16, ""instructions"": false, ""times"": [4650, 1488, 1393, 3503, 2896, 2320, 3408, 2656, 2768, 4336, 1488, 4497, 2160, 3567, 3809, 2303], ""correct_sizes"": true, ""used_time"": 90000, ""list_type"": ""categorized_16_2"", ""trial_type"": ""text-recall"", ""trial_index"": 129, ""time_elapsed"": 2367393, ""internal_node_id"": ""0.0-35.0"", ""mode"": ""pilot"", ""subject_cond"": ""0"", ""exp"": ""expAv3""}"
debugUdL5s:debugQTkOI,6,1.64E+12,"{""type"": ""reminder"", ""success"": true, ""recalled_list"": [], ""matching_list"": [], ""missing_list"": [], ""shown_list"": [""SUBWAY"", ""CAVE"", ""OIL"", ""VALLEY"", ""NUCLEAR"", ""WAGON"", ""RIVER"", ""JEEP"", ""WATER"", ""BLUEGRASS"", ""SKA"", ""TECHNO"", ""PUNK"", ""ELECTRICITY"", ""TROLLEY"", ""CANYON""], ""num_correct"": 0, ""instructions"": false, ""times"": [], ""reminder"": """", ""list_type"": ""categorized_16_2"", ""trial_type"": ""reminder"", ""trial_index"": 130, ""time_elapsed"": 2368397, ""internal_node_id"": ""0.0-36.0"", ""mode"": ""pilot"", ""subject_cond"": ""0"", ""exp"": ""expAv3""}"
debugUdL5s:debugQTkOI,7,1.64E+12,"{""type"": ""text-recall"", ""success"": false, ""recalled_list"": [""SEA"", ""FOUNDATION"", ""CELLAR"", ""BROEN"", ""MAPLE"", ""MAROON"", ""PLATEAU"", ""CRIMSON"", ""CEDAR"", ""ELM"", ""SCARLET"", ""BATHROOM"", ""LOBBY"", ""RIDGE"", ""ISLAND"", ""WILLOW""], ""matching_list"": [""SEA"", ""FOUNDATION"", ""CELLAR"", ""MAPLE"", ""MAROON"", ""PLATEAU"", ""CRIMSON"", ""CEDAR"", ""ELM"", ""SCARLET"", ""BATHROOM"", ""LOBBY"", ""RIDGE"", ""ISLAND"", ""WILLOW""], ""missing_list"": [""BROWN""], ""shown_list"": [""SEA"", ""FOUNDATION"", ""CELLAR"", ""BROWN"", ""MAPLE"", ""MAROON"", ""PLATEAU"", ""CRIMSON"", ""CEDAR"", ""ELM"", ""SCARLET"", ""BATHROOM"", ""LOBBY"", ""RIDGE"", ""ISLAND"", ""WILLOW""], ""num_correct"": 15, ""instructions"": false, ""times"": [2602, 5104, 1360, 3936, 2176, 3424, 4144, 4480, 944, 2192, 5072, 2400, 1952, 2336, 3008, 3296], ""correct_sizes"": false, ""used_time"": 90000, ""list_type"": ""categorized_16_9"", ""trial_type"": ""text-recall"", ""trial_index"": 133, ""time_elapsed"": 2541096, ""internal_node_id"": ""0.0-39.0"", ""mode"": ""pilot"", ""subject_cond"": ""0"", ""exp"": ""expAv3""}"
debugUdL5s:debugQTkOI,8,1.64E+12,"{""type"": ""reminder"", ""success"": true, ""recalled_list"": [], ""matching_list"": [], ""missing_list"": [], ""shown_list"": [""SEA"", ""FOUNDATION"", ""CELLAR"", ""BROWN"", ""MAPLE"", ""MAROON"", ""PLATEAU"", ""CRIMSON"", ""CEDAR"", ""ELM"", ""SCARLET"", ""BATHROOM"", ""LOBBY"", ""RIDGE"", ""ISLAND"", ""WILLOW""], ""num_correct"": 0, ""instructions"": false, ""times"": [], ""reminder"": """", ""list_type"": ""categorized_16_9"", ""trial_type"": ""reminder"", ""trial_index"": 134, ""time_elapsed"": 2542101, ""internal_node_id"": ""0.0-40.0"", ""mode"": ""pilot"", ""subject_cond"": ""0"", ""exp"": ""expAv3""}"
debugUdL5s:debugQTkOI,9,1.64E+12,"{""type"": ""text-recall"", ""success"": false, ""recalled_list"": [""SEEDS"", ""POP"", ""CLIFF"", ""HILL"", ""GOSPEL"", ""TUNA"", ""COD"", ""WATERFALL"", ""REGGAE"", ""SHARK"", ""PITHFORK"", ""POND"", ""PERCH"", ""CLIPPERS"", ""OPERA""], ""matching_list"": [""SEEDS"", ""POP"", ""CLIFF"", ""HILL"", ""GOSPEL"", ""TUNA"", ""COD"", ""WATERFALL"", ""REGGAE"", ""SHARK"", ""PITCHFORK"", ""POND"", ""PERCH"", ""CLIPPERS"", ""OPERA""], ""missing_list"": [""SOIL""], ""shown_list"": [""SOIL"", ""SEEDS"", ""POP"", ""CLIFF"", ""GOSPEL"", ""TUNA"", ""WATERFALL"", ""REGGAE"", ""SHARK"", ""PITCHFORK"", ""POND"", ""COD"", ""HILL"", ""PERCH"", ""CLIPPERS"", ""OPERA""], ""num_correct"": 15, ""instructions"": false, ""times"": [2875, 3776, 2416, 2144, 1248, 2560, 752, 5008, 2992, 991, 4304, 2607, 7553, 3231, 2657], ""correct_sizes"": true, ""used_time"": 90000, ""list_type"": ""categorized_16_4"", ""trial_type"": ""text-recall"", ""trial_index"": 137, ""time_elapsed"": 2692239, ""internal_node_id"": ""0.0-43.0"", ""mode"": ""pilot"", ""subject_cond"": ""0"", ""exp"": ""expAv3""}"
debugUdL5s:debugQTkOI,10,1.64E+12,"{""type"": ""reminder"", ""success"": true, ""recalled_list"": [], ""matching_list"": [], ""missing_list"": [], ""shown_list"": [""SOIL"", ""SEEDS"", ""POP"", ""CLIFF"", ""GOSPEL"", ""TUNA"", ""WATERFALL"", ""REGGAE"", ""SHARK"", ""PITCHFORK"", ""POND"", ""COD"", ""HILL"", ""PERCH"", ""CLIPPERS"", ""OPERA""], ""num_correct"": 0, ""instructions"": false, ""times"": [], ""reminder"": """", ""list_type"": ""categorized_16_4"", ""trial_type"": ""reminder"", ""trial_index"": 138, ""time_elapsed"": 2693243, ""internal_node_id"": ""0.0-44.0"", ""mode"": ""pilot"", ""subject_cond"": ""0"", ""exp"": ""expAv3""}"
debugUdL5s:debugQTkOI,11,1.64E+12,"{""type"": ""text-recall"", ""success"": true, ""recalled_list"": [""CRANE"", ""SWAN"", ""ROOM"", ""PORCH"", ""ATTIC"", ""PEACOCK"", ""DUCK"", ""SWIMMING"", ""DORMITORY"", ""SWAN"", ""BADMINTON"", ""COTTAGE"", ""BOXING"", ""HOTEL"", ""PALACE"", ""SAILING"", ""FLOOR""], ""matching_list"": [""CRANE"", ""SWAN"", ""ROOM"", ""PORCH"", ""ATTIC"", ""PEACOCK"", ""DUCK"", ""SWIMMING"", ""DORMITORY"", ""BADMINTON"", ""COTTAGE"", ""BOXING"", ""HOTEL"", ""PALACE"", ""SAILING"", ""FLOOR""], ""missing_list"": [], ""shown_list"": [""CRANE"", ""ROOM"", ""ATTIC"", ""PEACOCK"", ""DUCK"", ""SWIMMING"", ""DORMITORY"", ""PORCH"", ""SWAN"", ""BADMINTON"", ""COTTAGE"", ""BOXING"", ""HOTEL"", ""PALACE"", ""SAILING"", ""FLOOR""], ""num_correct"": 16, ""instructions"": false, ""times"": [3463, 1616, 1104, 1728, 1104, 6432, 1104, 2000, 3968, 4384, 5408, 3136, 2032, 2000, 2624, 3216, 3071], ""correct_sizes"": true, ""used_time"": 90000, ""list_type"": ""categorized_16_5"", ""trial_type"": ""text-recall"", ""trial_index"": 141, ""time_elapsed"": 2848041, ""internal_node_id"": ""0.0-47.0"", ""mode"": ""pilot"", ""subject_cond"": ""0"", ""exp"": ""expAv3""}"
debugUdL5s:debugQTkOI,12,1.64E+12,"{""type"": ""reminder"", ""success"": true, ""recalled_list"": [], ""matching_list"": [], ""missing_list"": [], ""shown_list"": [""CRANE"", ""ROOM"", ""ATTIC"", ""PEACOCK"", ""DUCK"", ""SWIMMING"", ""DORMITORY"", ""PORCH"", ""SWAN"", ""BADMINTON"", ""COTTAGE"", ""BOXING"", ""HOTEL"", ""PALACE"", ""SAILING"", ""FLOOR""], ""num_correct"": 0, ""instructions"": false, ""times"": [], ""reminder"": """", ""list_type"": ""categorized_16_5"", ""trial_type"": ""reminder"", ""trial_index"": 142, ""time_elapsed"": 2849044, ""internal_node_id"": ""0.0-48.0"", ""mode"": ""pilot"", ""subject_cond"": ""0"", ""exp"": ""expAv3""}"
debugUdL5s:debugQTkOI,13,1.64E+12,"{""type"": ""text-recall"", ""success"": true, ""recalled_list"": [""PLUM"", ""CEILING"", ""GRAPE"", ""CHERRY"", ""FOG"", ""ENTRANCE"", ""FINCH"", ""FIG"", ""SPWARROW"", ""BLIZZARD"", ""CYCLONE"", ""DOVE"", ""KITCHEN"", ""VULTURE"", ""BASEMENT"", ""FLOOD""], ""matching_list"": [""PLUM"", ""CEILING"", ""GRAPE"", ""CHERRY"", ""FOG"", ""ENTRANCE"", ""FINCH"", ""FIG"", ""SPARROW"", ""BLIZZARD"", ""CYCLONE"", ""DOVE"", ""KITCHEN"", ""VULTURE"", ""BASEMENT"", ""FLOOD""], ""missing_list"": [], ""shown_list"": [""PLUM"", ""CEILING"", ""GRAPE"", ""CHERRY"", ""FOG"", ""ENTRANCE"", ""FINCH"", ""FIG"", ""SPARROW"", ""BLIZZARD"", ""CYCLONE"", ""DOVE"", ""KITCHEN"", ""VULTURE"", ""BASEMENT"", ""FLOOD""], ""num_correct"": 16, ""instructions"": false, ""times"": [4299, 1776, 3456, 2528, 3344, 3424, 5552, 1424, 1520, 3776, 2496, 4720, 1824, 2464, 2544, 3200], ""correct_sizes"": true, ""used_time"": 90000, ""list_type"": ""categorized_16_6"", ""trial_type"": ""text-recall"", ""trial_index"": 145, ""time_elapsed"": 3006254, ""internal_node_id"": ""0.0-51.0"", ""mode"": ""pilot"", ""subject_cond"": ""0"", ""exp"": ""expAv3""}"
debugUdL5s:debugQTkOI,14,1.64E+12,"{""type"": ""reminder"", ""success"": true, ""recalled_list"": [], ""matching_list"": [], ""missing_list"": [], ""shown_list"": [""PLUM"", ""CEILING"", ""GRAPE"", ""CHERRY"", ""FOG"", ""ENTRANCE"", ""FINCH"", ""FIG"", ""SPARROW"", ""BLIZZARD"", ""CYCLONE"", ""DOVE"", ""KITCHEN"", ""VULTURE"", ""BASEMENT"", ""FLOOD""], ""num_correct"": 0, ""instructions"": false, ""times"": [], ""reminder"": """", ""list_type"": ""categorized_16_6"", ""trial_type"": ""reminder"", ""trial_index"": 146, ""time_elapsed"": 3007256, ""internal_node_id"": ""0.0-52.0"", ""mode"": ""pilot"", ""subject_cond"": ""0"", ""exp"": ""expAv3""}"
debugUdL5s:debugQTkOI,15,1.64E+12,"{""type"": ""text-recall"", ""success"": true, ""recalled_list"": [""THUNDER"", ""BALLROOM"", ""TIGER"", ""VANILLA"", ""BALLET"", ""SWING"", ""MONSOON"", ""RAIN"", ""SALSA"", ""DONKEY"", ""ANTELOPE"", ""SAGE"", ""SUGAR"", ""PIG"", ""GINGER"", ""TSUNAMI""], ""matching_list"": [""THUNDER"", ""BALLROOM"", ""TIGER"", ""VANILLA"", ""BALLET"", ""SWING"", ""MONSOON"", ""RAIN"", ""SALSA"", ""DONKEY"", ""ANTELOPE"", ""SAGE"", ""SUGAR"", ""PIG"", ""GINGER"", ""TSUNAMI""], ""missing_list"": [], ""shown_list"": [""THUNDER"", ""BALLROOM"", ""TIGER"", ""VANILLA"", ""BALLET"", ""SWING"", ""MONSOON"", ""RAIN"", ""SALSA"", ""DONKEY"", ""ANTELOPE"", ""SAGE"", ""SUGAR"", ""PIG"", ""GINGER"", ""TSUNAMI""], ""num_correct"": 16, ""instructions"": false, ""times"": [5451, 2016, 1424, 3888, 3920, 1584, 3200, 1776, 3040, 3888, 3104, 2512, 2993, 2544, 3824, 3024], ""correct_sizes"": true, ""used_time"": 90000, ""list_type"": ""categorized_16_3"", ""trial_type"": ""text-recall"", ""trial_index"": 149, ""time_elapsed"": 3160115, ""internal_node_id"": ""0.0-55.0"", ""mode"": ""pilot"", ""subject_cond"": ""0"", ""exp"": ""expAv3""}"
debugUdL5s:debugQTkOI,16,1.64E+12,"{""type"": ""reminder"", ""success"": true, ""recalled_list"": [], ""matching_list"": [], ""missing_list"": [], ""shown_list"": [""THUNDER"", ""BALLROOM"", ""TIGER"", ""VANILLA"", ""BALLET"", ""SWING"", ""MONSOON"", ""RAIN"", ""SALSA"", ""DONKEY"", ""ANTELOPE"", ""SAGE"", ""SUGAR"", ""PIG"", ""GINGER"", ""TSUNAMI""], ""num_correct"": 0, ""instructions"": false, ""times"": [], ""reminder"": """", ""list_type"": ""categorized_16_3"", ""trial_type"": ""reminder"", ""trial_index"": 150, ""time_elapsed"": 3161119, ""internal_node_id"": ""0.0-56.0"", ""mode"": ""pilot"", ""subject_cond"": ""0"", ""exp"": ""expAv3""}"
debugUdL5s:debugQTkOI,17,1.64E+12,"{""type"": ""text-recall"", ""success"": false, ""recalled_list"": [""WALLS"", ""ENCYCLOPEDIA"", ""COAT"", ""BLOCKS"", ""ELEVATOR"", ""BELY"", ""VELT"", ""BELT"", ""LETTER"", ""ROOF"", ""PUZZLE"", ""WING"", ""REPORT"", ""NINTENDO"", ""DIGEST"", ""SHORTS"", ""SKIRT"", ""KITE""], ""matching_list"": [""WALLS"", ""ENCYCLOPEDIA"", ""COAT"", ""BLOCKS"", ""ELEVATOR"", ""BELT"", ""LETTER"", ""ROOF"", ""PUZZLE"", ""WING"", ""REPORT"", ""DIGEST"", ""SHORTS"", ""SKIRT"", ""KITE""], ""missing_list"": [""NINTENDO""], ""shown_list"": [""WALLS"", ""COAT"", ""BLOCKS"", ""ELEVATOR"", ""BELT"", ""LETTER"", ""ROOF"", ""ENCYCLOPEDIA"", ""PUZZLE"", ""WING"", ""REPORT"", ""NINTENDO"", ""DIGEST"", ""SHORTS"", ""SKIRT"", ""KITE""], ""num_correct"": 15, ""instructions"": false, ""times"": [4075, 3231, 896, 2464, 3024, 2544, 1504, 1504, 1360, 1856, 6208, 2529, 3439, 4320, 2448, 2144, 2608, 2801], ""correct_sizes"": true, ""used_time"": 90000, ""list_type"": ""categorized_16_7"", ""trial_type"": ""text-recall"", ""trial_index"": 153, ""time_elapsed"": 3326616, ""internal_node_id"": ""0.0-59.0"", ""mode"": ""pilot"", ""subject_cond"": ""0"", ""exp"": ""expAv3""}"
debugUdL5s:debugQTkOI,18,1.64E+12,"{""type"": ""reminder"", ""success"": true, ""recalled_list"": [], ""matching_list"": [], ""missing_list"": [], ""shown_list"": [""WALLS"", ""COAT"", ""BLOCKS"", ""ELEVATOR"", ""BELT"", ""LETTER"", ""ROOF"", ""ENCYCLOPEDIA"", ""PUZZLE"", ""WING"", ""REPORT"", ""NINTENDO"", ""DIGEST"", ""SHORTS"", ""SKIRT"", ""KITE""], ""num_correct"": 0, ""instructions"": false, ""times"": [], ""reminder"": """", ""list_type"": ""categorized_16_7"", ""trial_type"": ""reminder"", ""trial_index"": 154, ""time_elapsed"": 3327619, ""internal_node_id"": ""0.0-60.0"", ""mode"": ""pilot"", ""subject_cond"": ""0"", ""exp"": ""expAv3""}"
debugUdL5s:debugQTkOI,19,1.64E+12,"{""type"": ""text-recall"", ""success"": false, ""recalled_list"": [""HARMONICA"", ""ACCORDION"", ""RUGHYBEECH"", ""CABINET"", ""CLARNITE"", ""TRACK"", ""LAMP"", ""WE\\RESTLING"", ""BUREAU"", ""SKIING"", ""DESK"", ""FIR"", ""BANJO"", ""REDWOOD"", ""POPLAR""], ""matching_list"": [""HARMONICA"", ""ACCORDION"", ""CABINET"", ""TRACK"", ""LAMP"", ""BUREAU"", ""SKIING"", ""DESK"", ""FIR"", ""BANJO"", ""REDWOOD"", ""POPLAR""], ""missing_list"": [""RUGBY"", ""BEECH"", ""CLARINET"", ""WRESTLING""], ""shown_list"": [""HARMONICA"", ""ACCORDION"", ""RUGBY"", ""BEECH"", ""CABINET"", ""CLARINET"", ""TRACK"", ""LAMP"", ""WRESTLING"", ""BUREAU"", ""SKIING"", ""DESK"", ""FIR"", ""BANJO"", ""REDWOOD"", ""POPLAR""], ""num_correct"": 12, ""instructions"": false, ""times"": [3739, 3488, 4832, 2929, 3407, 2384, 3104, 5087, 2736, 1232, 2721, 2848, 3920, 3039, 3473], ""correct_sizes"": true, ""used_time"": 90000, ""list_type"": ""categorized_16_0"", ""trial_type"": ""text-recall"", ""trial_index"": 157, ""time_elapsed"": 3479043, ""internal_node_id"": ""0.0-63.0"", ""mode"": ""pilot"", ""subject_cond"": ""0"", ""exp"": ""expAv3""}"
debugUdL5s:debugQTkOI,20,1.64E+12,"{""type"": ""reminder"", ""success"": false, ""recalled_list"": [], ""matching_list"": [], ""missing_list"": [], ""shown_list"": [""HARMONICA"", ""ACCORDION"", ""RUGBY"", ""BEECH"", ""CABINET"", ""CLARINET"", ""TRACK"", ""LAMP"", ""WRESTLING"", ""BUREAU"", ""SKIING"", ""DESK"", ""FIR"", ""BANJO"", ""REDWOOD"", ""POPLAR""], ""num_correct"": 0, ""instructions"": false, ""times"": [], ""reminder"": """", ""list_type"": ""categorized_16_0"", ""trial_type"": ""reminder"", ""trial_index"": 158, ""time_elapsed"": 3480049, ""internal_node_id"": ""0.0-64.0"", ""mode"": ""pilot"", ""subject_cond"": ""0"", ""exp"": ""expAv3""}"
debugUdL5s:debugQTkOI,21,1.64E+12,"{""type"": ""survey-text"", ""responses"": ""{\""Q0\"":\""It was hard to understand how this whole test worked. It took me 20min to start it because i need to spell \\\""HAPPINESS\\\"" not the other two words.\""}"", ""trial_type"": ""survey-text"", ""trial_index"": 161, ""time_elapsed"": 3544454, ""internal_node_id"": ""0.0-67.0"", ""mode"": ""pilot"", ""subject_cond"": ""0"", ""exp"": ""expAv3""}"
debugUdL5s:debugQTkOI,22,1.64E+12,"{""id"": ""debugUdL5s:debugQTkOI"", ""type"": ""total-points"", ""total_points"": 114}"
debug7T5Yo:debugXYwDG,0,1.64E+12,"{""type"": ""survey-text"", ""responses"": ""{\""Q0\"":\""602e3256b9bd9291e86a4a12\""}"", ""trial_type"": ""survey-text"", ""trial_index"": 0, ""time_elapsed"": 3698, ""internal_node_id"": ""0.0-0.0"", ""mode"": ""pilot"", ""subject_cond"": ""7"", ""exp"": ""expAv3""}"
debugFu3Fz:debugPWLU6,0,1.64E+12,"{""type"": ""survey-text"", ""responses"": ""{\""Q0\"":\""603d11a9240c9703520cbdfb\""}"", ""trial_type"": ""survey-text"", ""trial_index"": 0, ""time_elapsed"": 3593, ""internal_node_id"": ""0.0-0.0"", ""mode"": ""pilot"", ""subject_cond"": ""5"", ""exp"": ""expAv3""}"
debugFu3Fz:debugPWLU6,1,1.64E+12,"{""type"": ""text-recall"", ""success"": true, ""recalled_list"": [""DETROYER"", ""OTTOMAN"", ""VELVET"", ""FELT"", ""LEATHER"", ""SWING"", ""BALLROOM"", ""DESK"", ""CABINET"", ""OTTOMAN"", ""LINEN"", ""VELVET"", ""SCHOONER"", ""WALTZ"", ""TANKER"", ""SALSA"", ""BUREAU"", ""LEATHER"", ""BARGE""], ""matching_list"": [""DESTROYER"", ""OTTOMAN"", ""VELVET"", ""FELT"", ""LEATHER"", ""SWING"", ""BALLROOM"", ""DESK"", ""CABINET"", ""LINEN"", ""SCHOONER"", ""WALTZ"", ""TANKER"", ""SALSA"", ""BUREAU"", ""BARGE""], ""missing_list"": [], ""shown_list"": [""DESK"", ""CABINET"", ""LINEN"", ""BALLROOM"", ""SCHOONER"", ""WALTZ"", ""BUREAU"", ""TANKER"", ""SALSA"", ""SWING"", ""FELT"", ""LEATHER"", ""VELVET"", ""BARGE"", ""OTTOMAN"", ""DESTROYER""], ""num_correct"": 16, ""instructions"": false, ""times"": [3108, 2438, 1599, 615, 1222, 779, 1573, 9108, 1010, 2014, 3750, 1063, 7629, 1356, 4372, 2634, 2011, 14408, 2347], ""correct_sizes"": true, ""used_time"": 90000, ""list_type"": ""categorized_16_3"", ""trial_type"": ""text-recall"", ""trial_index"": 25, ""time_elapsed"": 668322, ""internal_node_id"": ""0.0-27.0"", ""mode"": ""pilot"", ""subject_cond"": ""5"", ""exp"": ""expAv3""}"
debugFu3Fz:debugPWLU6,2,1.64E+12,"{""type"": ""reminder"", ""success"": true, ""recalled_list"": [], ""matching_list"": [], ""missing_list"": [], ""shown_list"": [""DESK"", ""CABINET"", ""LINEN"", ""BALLROOM"", ""SCHOONER"", ""WALTZ"", ""BUREAU"", ""TANKER"", ""SALSA"", ""SWING"", ""FELT"", ""LEATHER"", ""VELVET"", ""BARGE"", ""OTTOMAN"", ""DESTROYER""], ""num_correct"": 0, ""instructions"": false, ""times"": [], ""reminder"": """", ""list_type"": ""categorized_16_3"", ""trial_type"": ""reminder"", ""trial_index"": 26, ""time_elapsed"": 669326, ""internal_node_id"": ""0.0-28.0"", ""mode"": ""pilot"", ""subject_cond"": ""5"", ""exp"": ""expAv3""}"
debugFu3Fz:debugPWLU6,3,1.64E+12,"{""type"": ""text-recall"", ""success"": true, ""recalled_list"": [""BUNGALOW"", ""COTTAGE"", ""PALACE"", ""SQUIRREL"", ""FOX"", ""MOOSE"", ""BLUES"", ""SOUL"", ""MANSION"", ""POP"", ""EDITORIAL"", ""INSTRUMENTAL"", ""NOTE"", ""PAPER"", ""RABBIT"", ""MANUSCRIPT""], ""matching_list"": [""BUNGALOW"", ""COTTAGE"", ""PALACE"", ""SQUIRREL"", ""FOX"", ""MOOSE"", ""BLUES"", ""SOUL"", ""MANSION"", ""POP"", ""EDITORIAL"", ""INSTRUMENTAL"", ""NOTE"", ""PAPER"", ""RABBIT"", ""MANUSCRIPT""], ""missing_list"": [], ""shown_list"": [""COTTAGE"", ""MANSION"", ""PALACE"", ""BLUES"", ""SOUL"", ""SQUIRREL"", ""FOX"", ""EDITORIAL"", ""NOTE"", ""PAPER"", ""INSTRUMENTAL"", ""MOOSE"", ""RABBIT"", ""POP"", ""MANUSCRIPT"", ""BUNGALOW""], ""num_correct"": 16, ""instructions"": false, ""times"": [3515, 1507, 966, 2031, 929, 1079, 1149, 2017, 9871, 6597, 9084, 2198, 1693, 3205, 9122, 8602], ""correct_sizes"": true, ""used_time"": 79828, ""list_type"": ""categorized_16_5"", ""trial_type"": ""text-recall"", ""trial_index"": 29, ""time_elapsed"": 811581, ""internal_node_id"": ""0.0-31.0"", ""mode"": ""pilot"", ""subject_cond"": ""5"", ""exp"": ""expAv3""}"
debugFu3Fz:debugPWLU6,4,1.64E+12,"{""type"": ""reminder"", ""success"": true, ""recalled_list"": [], ""matching_list"": [], ""missing_list"": [], ""shown_list"": [""COTTAGE"", ""MANSION"", ""PALACE"", ""BLUES"", ""SOUL"", ""SQUIRREL"", ""FOX"", ""EDITORIAL"", ""NOTE"", ""PAPER"", ""INSTRUMENTAL"", ""MOOSE"", ""RABBIT"", ""POP"", ""MANUSCRIPT"", ""BUNGALOW""], ""num_correct"": 0, ""instructions"": false, ""times"": [], ""reminder"": """", ""list_type"": ""categorized_16_5"", ""trial_type"": ""reminder"", ""trial_index"": 30, ""time_elapsed"": 812583, ""internal_node_id"": ""0.0-32.0"", ""mode"": ""pilot"", ""subject_cond"": ""5"", ""exp"": ""expAv3""}"
debugFu3Fz:debugPWLU6,5,1.64E+12,"{""type"": ""text-recall"", ""success"": true, ""recalled_list"": [""ESSAY"", ""MAPLE"", ""EVERGREEN"", ""CEDAR"", ""TRAILER"", ""BICYCLE"", ""JET"", ""AXE"", ""LETTER"", ""BULLETIN"", ""PENCIL"", ""BOLT"", ""PAMPHLET"", ""LEVEL"", ""VAN"", ""MAPLE"", ""ELM"", ""ESSAY""], ""matching_list"": [""ESSAY"", ""MAPLE"", ""EVERGREEN"", ""CEDAR"", ""TRAILER"", ""BICYCLE"", ""JET"", ""AXE"", ""LETTER"", ""BULLETIN"", ""PENCIL"", ""BOLT"", ""PAMPHLET"", ""LEVEL"", ""VAN"", ""ELM""], ""missing_list"": [], ""shown_list"": [""CEDAR"", ""BICYCLE"", ""JET"", ""LETTER"", ""AXE"", ""PENCIL"", ""BULLETIN"", ""PAMPHLET"", ""BOLT"", ""TRAILER"", ""VAN"", ""LEVEL"", ""MAPLE"", ""ELM"", ""EVERGREEN"", ""ESSAY""], ""num_correct"": 16, ""instructions"": false, ""times"": [3008, 1096, 2285, 6194, 3404, 1334, 615, 7443, 3141, 2206, 1673, 4677, 4321, 5945, 2163, 3263, 770, 4839], ""correct_sizes"": true, ""used_time"": 61902, ""list_type"": ""categorized_16_0"", ""trial_type"": ""text-recall"", ""trial_index"": 33, ""time_elapsed"": 936659, ""internal_node_id"": ""0.0-35.0"", ""mode"": ""pilot"", ""subject_cond"": ""5"", ""exp"": ""expAv3""}"
